idx,accelX_g,accelY_g,accelZ_g,magX_uT,magY_uT,magZ_uT,gyroX_dps,gyroY_dps,gyroZ_dps,gyroX_deg,gyroY_deg,gyroZ_deg,temp_C,humidity,pres_Pa,alt_m
107176,-0.035,-0.995,0.132,-39.5,-46.3,1.1,-1.188,-3,0.125,-82.453,2.006,172.492,43.221,3.97,85808.77,1563.47
107177,-0.032,-0.999,0.116,-40.2,-46.5,1.4,-1.562,-3.188,0.25,-83.371,1.833,174.132,43.202,3.96,85809.87,1563.26
107178,-0.027,-0.995,0.133,-39.7,-46,1.9,-1.375,-2.938,-0.062,-82.398,1.56,173.761,43.214,3.95,85807.18,1563.62
107179,-0.031,-0.994,0.126,-39.3,-46.8,2.7,-1.5,-2.875,0.25,-82.778,1.786,175.157,43.204,3.93,85804.61,1563.85
107180,-0.036,-0.996,0.118,-39,-46.5,3.5,-1.312,-3.312,0.062,-83.241,2.061,176.936,43.202,3.95,85803.71,1563.95
107181,-0.03,-0.994,0.128,-40.5,-47.4,2.7,-1.438,-2.938,-0.125,-82.667,1.73,175.065,43.207,3.94,85805.77,1563.74
107182,-0.023,-0.996,0.112,-40.6,-47.1,0.8,-1.75,-2.5,0,-83.574,1.338,173.533,43.209,3.94,85806.04,1563.72
107183,-0.031,-0.996,0.126,-39.6,-46.1,1.6,-1.375,-2.25,-0.062,-82.792,1.783,173.722,43.207,3.93,85810.27,1563.24
107184,-0.035,-0.995,0.122,-39.8,-46.9,1.2,-1.625,-2.75,-0.562,-83.007,2.008,173.242,43.215,3.92,85809.84,1563.33
107185,-0.023,-0.996,0.122,-40,-47.1,1.9,-1.375,-2.812,-0.438,-83.02,1.337,174.365,43.213,3.92,85808.47,1563.47
107186,-0.024,-0.995,0.124,-40.1,-47.7,1.3,-1.625,-2.625,-0.125,-82.896,1.395,173.248,43.221,3.87,85809.87,1563.35
107187,-0.03,-0.998,0.121,-40.7,-46.4,2.4,-1.5,-2.875,0.062,-83.089,1.723,175.342,43.218,3.87,85810.27,1563.3
107188,-0.026,-0.994,0.127,-40,-46.5,1.7,-1.688,-2.812,-0.188,-82.723,1.507,173.811,43.213,3.87,85810.31,1563.27
107189,-0.027,-0.995,0.121,-40.4,-46.7,1.3,-1.188,-2.688,0,-83.062,1.562,173.653,43.197,3.82,85807.07,1563.55
107190,-0.024,-0.995,0.124,-40.7,-46.1,0.6,-1.375,-2.75,0,-82.896,1.395,172.648,43.182,3.84,85807.89,1563.38
107191,-0.021,-0.996,0.126,-39.4,-46.6,0.9,-1.75,-3,0.25,-82.792,1.226,172.649,43.188,3.77,85811.32,1563.03
107192,-0.027,-0.996,0.115,-40.9,-46.6,0.9,-1.938,-2.062,-0.25,-83.401,1.562,173.576,43.143,3.74,85807.82,1563.2
107193,-0.026,-0.995,0.129,-39.9,-45.5,1.9,-0.938,-2.75,0.25,-82.619,1.505,174.155,43.127,3.74,85805.95,1563.33
107194,-0.024,-0.996,0.119,-40.6,-47.1,1.6,-1.375,-2.5,-0.125,-83.179,1.394,174.203,43.11,3.76,85806.58,1563.17
107195,-0.027,-0.994,0.121,-39.5,-46.7,1.7,-1.062,-2.562,-0.062,-83.055,1.564,174.085,43.105,3.78,85806.57,1563.15
107196,-0.032,-0.994,0.126,-39.4,-46.5,0.9,-0.938,-3,0.125,-82.778,1.842,172.553,43.118,3.79,85809.17,1562.92
107197,-0.02,-0.997,0.115,-39.8,-46.4,0.6,-1.5,-2.812,-0.562,-83.414,1.114,173.072,43.123,3.8,85805.81,1563.32
107198,-0.021,-0.994,0.129,-40.3,-45.8,1.3,-1.125,-2.562,0.375,-82.612,1.228,173.326,43.125,3.78,85805.61,1563.35
107199,-0.037,-0.996,0.115,-40.5,-46.7,2.2,-1.625,-2.312,0.062,-83.407,2.117,175.314,43.144,3.82,85810.11,1562.95
107200,-0.032,-0.996,0.124,-40.5,-47,1.7,-1.062,-2.688,-0.438,-82.903,1.839,173.966,43.133,3.82,85806.8,1563.26
107201,-0.015,-0.996,0.128,-39.1,-46.7,2.3,-1.625,-2.375,-0.062,-82.689,0.835,174.555,43.147,3.86,85805.67,1563.45
107202,-0.028,-0.996,0.112,-39.7,-47.3,0.3,-1.562,-2.125,0.25,-83.574,1.617,172.579,43.13,3.84,85803.72,1563.59
107203,-0.039,-0.993,0.131,-39.1,-47.2,0.3,-1.688,-2.938,0,-82.494,2.233,171.046,43.123,3.89,85805.08,1563.4
107204,-0.02,-0.996,0.115,-38.2,-46.5,1.1,-1.75,-2.938,-0.312,-83.401,1.172,173.489,43.127,3.9,85806.32,1563.28
107205,-0.019,-0.995,0.122,-40.1,-47.3,0.2,-0.875,-2.062,0.25,-83.007,1.06,171.931,43.128,3.86,85804.3,1563.52
107206,-0.036,-0.997,0.123,-39.8,-46,2.5,-1.562,-2.375,-0.125,-82.972,2.058,175.281,43.122,3.86,85803.44,1563.58
107207,-0.035,-0.995,0.116,-40.7,-45.9,0.9,-1.625,-2.625,0,-83.339,2.01,173.531,43.112,3.82,85803.16,1563.56
107208,-0.019,-0.994,0.13,-40,-47.4,0.6,-1.438,-2.438,-0.125,-82.557,1.06,171.932,43.097,3.8,85804.79,1563.31
107209,-0.029,-0.995,0.113,-39.2,-48,-1.1,-1.375,-2.75,-0.125,-83.506,1.676,170.209,43.084,3.83,85802.64,1563.48
107210,-0.042,-0.997,0.131,-38.4,-46.7,2.6,-1.562,-2.938,-0.125,-82.53,2.389,174.522,43.083,3.81,85806.14,1563.09
107211,-0.029,-0.996,0.118,-39.3,-46.4,1,-1.938,-3.188,0,-83.235,1.673,173.275,43.092,3.85,85805.21,1563.24
107212,-0.022,-0.996,0.119,-38.8,-46.4,2.3,-1.625,-2.812,0.188,-83.186,1.281,175.123,43.098,3.88,85806.06,1563.17
107213,-0.032,-0.996,0.128,-40.1,-46.2,2.5,-1.438,-2.625,-0.188,-82.689,1.836,174.967,43.101,3.85,85809.09,1562.85
107214,-0.038,-0.994,0.115,-38.2,-47.5,2.6,-1.812,-3.125,-0.062,-83.388,2.179,175.462,43.108,3.91,85805.24,1563.31
107215,-0.025,-0.996,0.128,-38.6,-46.9,2.2,-1.375,-2.625,0.312,-82.681,1.448,174.211,43.107,3.89,85805.05,1563.33
107216,-0.025,-0.994,0.122,-40.5,-45.9,1,-1.688,-2.375,0.312,-83,1.452,173.327,43.111,3.91,85807.5,1563.08
107217,-0.034,-0.996,0.123,-39.9,-46.7,3.2,-1.375,-2.5,0,-82.958,1.95,176.19,43.111,3.93,85803.37,1563.53
107218,-0.031,-0.995,0.125,-40.8,-46.4,1,-1.375,-2.812,-0.438,-82.84,1.785,173.057,43.106,3.91,85804.89,1563.34
107219,-0.023,-0.994,0.121,-39.6,-47.8,1.7,-1.5,-3.375,-0.125,-83.055,1.341,173.929,43.105,3.91,85807.02,1563.1
107220,-0.029,-0.994,0.129,-39.5,-46.1,1.6,-1.5,-3.25,-0.438,-82.612,1.674,173.507,43.098,3.91,85806.35,1563.14
107221,-0.036,-0.995,0.119,-41.6,-47,1.1,-2.062,-2.625,0.062,-83.173,2.065,173.57,43.097,3.96,85806.27,1563.14
107222,-0.03,-0.996,0.124,-39,-46.3,1.2,-1.438,-3.062,-0.25,-82.91,1.726,173.138,43.096,3.89,85805.45,1563.23
107223,-0.02,-0.995,0.125,-40.4,-46.9,2.8,-1.938,-3.125,0.25,-82.84,1.171,175.552,43.101,3.88,85805.41,1563.26
107224,-0.026,-0.995,0.113,-39,-46.4,1.1,-1.5,-2.938,0,-83.506,1.508,173.722,43.108,3.9,85806.26,1563.2
107225,-0.031,-0.995,0.129,-40.7,-46.1,1.7,-1.312,-2.625,-0.25,-82.619,1.784,173.84,43.113,3.86,85810.61,1562.74
107226,-0.027,-0.996,0.119,-41,-47.7,2.8,-1.438,-2.875,-0.188,-83.179,1.561,175.842,43.103,3.93,85808.51,1562.92
107227,-0.021,-0.996,0.12,-38.9,-46.3,2.2,-1.625,-2.688,0.125,-83.124,1.227,174.936,43.116,3.85,85808.83,1562.95
107228,-0.028,-0.992,0.128,-39.3,-47,1.7,-1.75,-2.75,0,-82.653,1.622,173.501,43.099,3.86,85802.56,1563.57
107229,-0.03,-0.996,0.115,-37.7,-45.6,2.4,-1.312,-2.75,-0.25,-83.407,1.728,175.51,43.072,3.83,85802.12,1563.48
107230,-0.029,-0.996,0.127,-39.5,-46.6,3,-1.688,-2.625,-0.188,-82.744,1.67,175.635,43.073,3.91,85809.65,1562.65
107231,-0.054,-1.015,0.112,-39.7,-47.3,2.1,-1.688,-2.625,0.188,-83.69,3.009,175.215,43.063,3.91,85803.87,1563.24
107232,-0.03,-1.001,0.125,-39.1,-46.5,1.3,-1.312,-2.688,-0.5,-82.889,1.717,173.242,43.064,3.9,85802.84,1563.36
107233,-0.032,-0.996,0.124,-39.6,-46.9,1.9,-1.062,-2.75,-0.188,-82.903,1.839,174.138,43.069,3.88,85804.98,1563.15
107234,-0.032,-0.994,0.124,-38.9,-46.7,3.6,-1.5,-3.25,-0.25,-82.889,1.842,176.618,43.08,3.9,85805.79,1563.11
107235,-0.029,-0.996,0.128,-40.3,-45.3,2.3,-1.312,-2.875,-0.062,-82.681,1.671,174.883,43.076,3.89,85805.57,1563.11
107236,-0.033,-0.994,0.128,-40.2,-45.9,0.6,-1.812,-2.875,0.375,-82.667,1.897,172.249,43.066,3.89,85804.66,1563.17
107237,-0.033,-0.994,0.119,-41.2,-46.8,2.4,-2.25,-2.812,-0.188,-83.166,1.899,175.404,43.063,3.89,85801.29,1563.53
107238,-0.033,-0.996,0.122,-40.2,-46.9,3.8,-1.375,-2.625,-0.188,-83.013,1.895,177.135,43.069,3.88,85806.45,1562.98
107239,-0.014,-1.08,0.162,-41.4,-48.2,0.9,-2.062,-3.125,-0.5,-81.472,0.717,171.28,43.089,3.84,85807.81,1562.93
107240,-0.035,-1.014,0.13,-40.2,-46.2,1.4,-1.75,-2.938,0.562,-82.705,1.968,173.383,43.084,3.89,85807.14,1562.98
107241,-0.04,-0.99,0.124,-40.1,-45.7,0.9,-1.312,-2.875,0.125,-82.861,2.298,172.867,43.072,3.89,85804.7,1563.19
107242,-0.023,-0.995,0.123,-39,-46.2,3.3,-1.875,-3,-0.062,-82.951,1.339,176.386,43.083,3.86,85805.77,1563.13
107243,-0.239,-5.357,1.134,-40.6,-46.1,2.8,-15.562,22.188,-7.312,-78.047,2.5,169.989,43.018,3.91,85779.27,1565.76
107244,0.051,-5.357,0.956,-39.3,-44.9,3.4,-2.688,69.062,-1.438,-79.887,-0.534,173.484,42.995,3.86,85731.17,1571
107245,-0.373,-5.357,0.611,-41,-46,8.3,-0.438,81.312,-3.812,-83.494,3.955,184.603,42.981,3.87,85689.54,1575.57
107246,-0.4,-5.357,0.497,-42.7,-46,11.9,4.5,88.125,-7.625,-84.702,4.254,191.001,43.037,3.87,85646.04,1580.7
107247,-0.373,-5.357,0.56,-46.4,-44.6,14.6,12.062,94.312,-8.125,-84.03,3.959,192.908,43.03,3.92,85597.24,1586.11
107248,-0.398,-5.357,0.523,-50.7,-45.6,15.9,19.25,98.688,-4.25,-84.423,4.231,193.598,42.991,3.93,85557.96,1590.3
107249,-0.389,-5.357,0.432,-55.1,-45.1,16,16.312,113.562,-3.25,-85.386,4.144,193.425,42.988,3.99,85511.51,1595.47
107250,-0.381,-5.357,0.496,-59.4,-43.7,16.5,6.75,137.375,-12.688,-84.712,4.047,192.472,43.044,4.04,85515.5,1595.31
107251,-0.465,-5.357,0.419,-65.6,-44.4,12.7,6.125,160.688,-18,-85.531,4.941,188.515,43.014,4.19,85505.52,1596.27
107252,-0.516,-5.357,0.494,-69.9,-44.9,9.2,3.875,181.938,-11.375,-84.733,5.482,184.418,43.017,4.25,85518.1,1594.88
107253,-0.466,-5.357,0.458,-69.8,-44.5,1.8,1.688,209.75,-4.5,-85.116,4.949,178.261,43.044,4.39,85549.3,1591.53
107254,-0.504,-5.357,0.512,-64.1,-45,-3.5,2.5,248.188,-7.25,-84.537,5.346,172.583,43.041,4.54,85584.31,1587.61
107255,-0.608,-5.357,0.429,-54.3,-44.2,-7.5,5.688,288,-4.625,-85.417,6.455,167.356,42.982,4.68,85678.28,1576.83
107256,-0.412,-5.357,0.354,-43,-45.5,-0.1,-10.875,332.938,-14.062,-86.216,4.387,175.498,43.082,4.82,85861.67,1556.9
107257,-0.641,-5.357,0.468,-43.8,-45.2,10.7,-8.938,334.812,-13.875,-85.002,6.8,190.018,43.008,4.95,86186.71,1520.47
107258,-0.662,-5.357,0.371,-56.1,-44.3,17.6,-17.812,356.5,-14,-86.04,7.025,196.132,43.032,5.14,86450.39,1491.45
107259,-0.533,-5.357,0.645,-69.1,-44.3,11.5,2.625,397.875,-12.188,-83.133,5.64,185.437,43.037,5.28,87031,1427.68
107260,-0.463,-5.357,0.369,-65.5,-43.8,-0.7,-17.562,361.625,-17.688,-86.061,4.924,176.551,43.016,5.47,87431.1,1383.91
107261,-0.727,-5.357,0.277,-51.5,-45,-7.7,-4.062,354.062,-11.312,-87.038,7.719,167.467,43.016,5.66,87890.58,1334.06
107262,-0.614,-5.357,0.328,-42.4,-45.3,3,-10.938,166.5,-15.25,-86.497,6.525,180.351,43.063,5.85,88278.23,1292.43
107263,-0.46,-5.357,0.395,-48.1,-45.8,12.9,-17.125,139.562,-14.875,-85.78,4.891,192.191,43.065,5.97,88664.02,1251.03
107264,-0.727,-5.357,0.473,-59.3,-44.9,16.3,-9.625,192.062,-12.312,-84.951,7.7,193.151,43.076,6.13,89004.75,1214.68
107265,-0.652,-5.357,0.522,-67.7,-44.4,9.6,-16.125,78.5,-13.75,-84.433,6.906,184.855,43.086,6.33,89312.15,1182.03
107266,-0.59,-5.357,0.551,-69.4,-45,1.9,-6.5,177.312,-7.25,-84.123,6.257,177.572,43.099,6.44,89483.93,1163.86
107267,-0.935,-5.357,0.371,-61,-43.9,-5.6,5.312,114.25,-12,-86.04,9.877,170.703,43.105,6.51,89372.36,1175.71
107268,-0.847,-5.357,0.496,-51.5,-44.8,-4.1,-16.5,198.188,-9.312,-84.712,8.948,169.428,43.105,6.6,88956.78,1219.91
107269,-0.768,-5.233,0.405,-43.3,-45,0.9,-8.062,43.375,-11.875,-85.574,8.325,175.946,43.094,6.68,88355.52,1284.25
107270,-1.028,-4.254,0.222,-45.6,-44.8,9.3,-16.812,101.562,-6.875,-87.019,13.563,191.657,43.128,6.66,87624.71,1363.35
107271,-0.854,-3.816,0.193,-54.5,-45,17.4,-18.062,91.562,-10.75,-87.101,12.598,199.271,43.096,6.65,86810.28,1452.14
107272,-0.884,-2.205,0.473,-65.2,-45.5,16.8,-7.438,202.562,-7.75,-77.883,21.411,189.048,43.1,6.63,85976.12,1544.27
107273,-1.042,-0.255,0.106,-71.3,-45.7,7.1,-17.062,180.5,-9.75,-67.333,75.166,23.732,43.079,6.6,85025.28,1650.46
107274,-1.031,1.135,0.185,-68.1,-45.7,-0.3,-14.125,35.75,-12.25,80.722,41.864,175.001,43.115,6.57,83966.42,1770.71
107275,-1.108,1.982,0.013,-60.5,-44,-5.4,-16.438,65.875,-9.312,89.633,29.198,183.941,43.07,6.55,82899.03,1893.32
107276,-0.957,2.257,0.124,-49.8,-44.5,-4.2,-18.562,149.875,-10.375,86.857,22.952,181.588,43.09,6.48,81791.23,2022.96
107277,-0.671,2.741,0.244,-44,-45,3.7,-9.438,78.875,-8.25,84.912,13.696,171.802,43.057,6.45,80728.81,2148.93
107278,-0.796,3.05,-0.123,-46.4,-44.6,12.6,-13.125,220.188,-13.625,92.309,14.623,169.143,43.086,6.44,79682.97,2275.28
107279,-0.703,3.888,0.266,-55.2,-44.9,18.1,-13.562,159.875,-8.562,86.08,10.221,161.198,43.056,6.41,78566.87,2411.88
107280,-0.698,3.675,0.2,-65.6,-44.3,16.3,-17,220.188,-5.75,86.883,10.737,165.554,43.047,6.33,77474.06,2548.04
107281,-0.409,3.671,0.046,-70.2,-44.4,9.6,-16.688,159.312,-7.688,89.284,6.356,172.256,43.057,6.34,76395.02,2684.9
107282,-0.71,3.418,-0.071,-67.5,-44.6,1,-7.875,226.188,-9.5,91.194,11.725,179.946,43.072,6.28,75346.1,2820.2
107283,-0.573,3.318,0.048,-58.3,-45.3,-3,-17.875,259,-8.562,89.174,9.794,182.063,43.081,6.27,74329.46,2953.46
107284,-0.451,3.269,0.24,-48.5,-44.1,-3.6,-18.062,271.562,-7.625,85.799,7.834,180.381,43.098,6.21,73343.82,3084.84
107285,-0.366,3.222,0.232,-44.1,-44.3,7,-14.375,198.625,-5.25,85.876,6.464,168.216,43.113,6.19,72390.44,3213.92
107286,-0.32,3.104,0.138,-50.7,-44,14.8,-15.562,174.188,-9.75,87.461,5.883,163.04,43.126,6.18,71459.05,3341.99
107287,-0.402,2.924,0.051,-61.9,-44.7,17.7,-17.125,283.5,-10.375,89.006,7.829,164.666,43.143,6.15,70531.62,3471.55
107288,-0.141,3.02,0.068,-68.7,-45,11.5,-17.188,283,-5,88.704,2.664,169.962,43.148,6.14,69675.57,3592.84
107289,-0.378,2.862,0.119,-69.2,-43.4,2.5,-4.75,122.812,-7.875,87.617,7.513,176.684,43.202,6.06,68833.3,3714.51
107290,-0.224,2.88,0.076,-59,-44.4,-4.7,-3.375,251.062,-6.938,88.486,4.436,183.24,43.182,6.09,67975.62,3839.35
107291,-0.121,2.73,0.142,-48.1,-44.3,-1.7,-13.375,311.5,-6,87.012,2.535,179.299,43.209,6.06,67189.68,3955.98
107292,-0.364,2.664,0.001,-44.6,-45.6,5.5,-14.125,141.312,-7.688,89.979,7.783,173.749,43.239,6.03,66420.23,4071.79
107293,-0.386,2.445,0.073,-49,-45.7,16.2,6.688,255.938,-6.188,88.285,8.957,162.424,43.25,6.02,65636.78,4191.12
107294,-0.086,2.462,0.114,-63.1,-44.5,17,-15.625,303.188,-5.875,87.345,1.995,163.571,43.254,5.96,64868.13,4309.77
107295,-0.151,2.531,0.108,-70.9,-45,11.8,-11.812,267.25,-5.75,87.549,3.418,169.42,43.288,5.93,64133.55,4425.17
107296,-0.196,2.296,-0.03,-67.6,-44.2,1.9,-5.312,165.188,-8.75,90.755,4.884,178.939,43.313,5.92,63389.67,4543.53
107297,-0.261,2.182,-0.067,-56,-44.5,-5.2,-15.375,336,-9.688,91.768,6.806,186.162,43.346,5.86,62666.41,4660.33
107298,-0.218,2.212,-0.054,-46.2,-44.9,-0.4,-9.688,338.625,-8,91.39,5.619,181.694,43.335,5.83,61952.8,4776.51
107299,-0.05,2.135,-0.011,-44.6,-45.7,11.3,7,352.5,-8.688,90.288,1.336,166.37,43.36,5.82,61258.72,4891.62
107300,-0.312,1.922,-0.031,-56.6,-44.7,19.6,6.625,363.125,-10.062,90.931,9.23,163.347,43.376,5.82,60564.05,5008.24
107301,-0.137,2.002,-0.095,-69,-43.6,13.2,3.812,363.875,-7.375,92.708,3.901,171.197,43.381,5.78,59851.36,5129.38
107302,-0.236,1.88,-0.041,-67.2,-44.2,0.4,-14.062,386.438,-5.062,91.249,7.16,180.447,43.394,5.73,59185.7,5244.25
107303,-0.224,1.847,-0.151,-54,-44.5,-5.3,2.625,390.438,-6.688,94.683,6.878,188.612,43.419,5.7,58551.1,5355.39
107304,-0.309,1.764,-0.121,-44,-44.6,4.3,-12.688,403.875,-9.375,93.926,9.927,178.613,43.462,5.65,57927.45,5466.37
107305,-0.264,1.801,-0.111,-52.1,-45.1,17.5,-9.812,425.625,-7.25,93.536,8.34,165.847,43.451,5.63,57356.23,5568.39
107306,-0.14,1.692,-0.02,-67.8,-45.8,16.1,0.75,433.938,-10.625,90.661,4.714,167.689,43.46,5.6,56812.16,5667.04
107307,-0.103,1.661,-0.171,-67.5,-43,2,7.5,445.688,-12.062,95.871,3.545,181.97,43.452,5.54,56266.32,5766.86
107308,-0.292,1.606,-0.133,-53.1,-44.7,-3.9,7.312,450.938,-10.188,94.723,10.261,187.173,43.461,5.54,55727.21,5866.89
107309,-0.331,1.415,-0.138,-43.1,-44.3,7.1,14.938,461,-9.438,95.554,13.099,176.948,43.464,5.5,55181.35,5969.22
107310,-0.281,1.474,-0.03,-56.7,-45.6,18.9,-12.438,463.938,-9,91.176,10.796,164.396,43.475,5.42,54629.04,6074.17
107311,-0.293,1.39,-0.125,-70.2,-44.8,11.9,12.062,472.438,-11,95.136,11.85,174.266,43.475,5.4,54074.73,6180.56
107312,-0.195,1.415,-0.114,-62.5,-44.8,-1.9,-3.562,471.5,-13.875,94.613,7.828,184.623,43.477,5.42,53516.23,6289.1
107313,-0.236,1.414,0.015,-46,-45,-0.4,10.062,466.75,-4.688,89.407,9.481,179.929,43.483,5.35,52965.2,6397.61
107314,-0.3,1.325,-0.082,-47.8,-44.8,13.5,17.688,472.125,-8.812,93.54,12.715,169.296,43.493,5.31,52355.11,6519.42
107315,-0.253,1.286,-0.114,-65.4,-45,16.9,19.438,472.625,-14.25,95.073,11.075,170.024,43.496,5.35,51913.02,6608.64
107316,-0.205,1.232,-0.074,-69.3,-45.5,2.9,6.938,462.875,-11,93.446,9.431,179.879,43.479,5.32,51743.77,6642.66
107317,-0.224,1.09,-0.067,-55.4,-44.3,-5.3,-7.438,458.812,-9.875,93.535,11.564,187.248,43.49,5.28,51168.23,6760.81
107318,-0.261,0.949,-0.096,-43,-44.6,4.2,12.625,453.062,-13.625,95.757,15.286,180.317,43.493,5.3,50723.75,6853
107319,-0.226,0.932,-0.093,-54,-44.5,16.6,9.562,436.688,-10.125,95.681,13.59,169.163,43.523,5.25,50286.63,6945.23
107320,-0.157,0.866,-0.121,-69.4,-44.5,14.3,17.438,408.625,-10.812,97.958,10.191,174.025,43.484,5.26,49865.57,7033.47
107321,-0.066,0.821,0.023,-68.8,-43,2.5,15.312,368.688,-10,88.365,4.621,177.039,43.49,5.25,49454.68,7121.4
107322,-0.093,0.726,-0.004,-57.5,-44.4,-6.9,4.188,325.125,-6.875,90.308,7.277,186.5,43.492,5.24,49064.68,7205.6
107323,-0.022,0.64,-0.015,-46.1,-44.5,-1.1,7.375,308.812,-6.438,91.31,2.007,182.545,43.543,5.25,48682.59,7290.01
107324,-0.143,0.566,0.017,-43.7,-44.8,8.1,10.062,319,-8.688,88.321,14.216,169.989,43.516,5.25,48331.26,7366.6
107325,-0.107,0.59,0.041,-52.3,-44.6,16.6,13.312,343.375,-9,86.022,10.297,161.636,43.534,5.19,47975.02,7446
107326,-0.18,0.529,-0.016,-65,-45,16.6,7.812,378.062,-8.562,91.691,18.744,168.667,43.534,5.2,47625.48,7524.18
107327,-0.15,0.49,-0.086,-69.9,-44.2,5.3,12.875,416.938,-6.25,99.943,16.813,181.732,43.532,5.22,47277.28,7602.7
107328,-0.256,0.445,-0.083,-56.1,-44,-5,10.312,436.125,-9.875,100.559,29.459,190.552,43.551,5.22,46929.58,7682.3
107329,-0.091,0.49,-0.115,-44.7,-45.4,2.2,20.625,447.688,-6.062,103.228,10.223,189.025,43.552,5.2,46610.89,7755.5
107330,-0.217,0.452,-0.082,-50.9,-44.5,15.1,13.562,449.875,-11,100.283,25.257,174.008,43.557,5.17,46285.5,7830.93
107331,-0.243,0.441,-0.108,-67.8,-44.3,13.9,14.062,446.312,-8.125,103.797,28.146,177.942,43.565,5.16,45971.31,7904.45
107332,-0.172,0.44,-0.042,-67.6,-44.3,-0.1,13.938,441.688,-12.625,95.446,21.23,183.119,43.562,5.17,45646.14,7980.89
107333,-0.186,0.42,-0.101,-52.6,-44.3,-6.1,14.688,436.938,-8,103.471,23.363,194.078,43.576,5.17,45351.01,8051.26
107334,-0.239,0.384,-0.053,-43.5,-44.3,5.5,15.438,432.875,-12.375,97.824,31.7,180.551,43.58,5.17,45047.91,8123.84
107335,-0.12,0.429,-0.068,-54,-44.7,17.1,15.438,426,-10.625,99.039,15.433,171.307,43.568,5.18,44754.25,8194.3
107336,-0.077,0.467,-0.05,-67.7,-44.6,15.3,7.25,414,-10.312,96.09,9.333,171.966,43.609,5.21,44460.35,8266.75
107337,-0.191,0.358,-0.103,-67.3,-45,-0.1,14.25,414.312,-10.5,106.11,27.162,188.983,43.573,5.21,44167.21,8337.56
107338,-0.155,0.399,-0.035,-53.2,-45.1,-5.4,9.375,409.125,-9.125,95.03,21.169,188.09,43.613,5.22,43894.02,8406.02
107339,-0.159,0.366,-0.078,-43.6,-44.3,4.4,13,407.125,-9.625,102.043,23.03,184.916,43.593,5.26,43609.37,8476.24
107340,-0.223,0.336,-0.041,-52,-44.6,14.3,8.938,400.875,-7.75,96.961,33.341,172.712,43.606,5.26,43338.01,8544.58
107341,-0.244,0.347,-0.068,-65.1,-44.8,18,13.062,402.438,-8.812,101.124,34.569,173.609,43.584,5.3,43068.54,8611.96
107342,-0.157,0.352,-0.039,-69.9,-44.4,3.9,11.812,397.875,-8,96.323,23.906,180.708,43.637,5.31,42801.73,8681.24
107343,-0.196,0.338,-0.053,-59.5,-45.4,-4.1,13.25,395.312,-8.188,98.871,29.855,188.538,43.613,5.31,42540.96,8747.37
107344,-0.178,0.308,-0.035,-44,-44.6,-0.9,12.875,390.875,-8.25,96.499,29.78,185.642,43.651,5.34,42290.91,8812.91
107345,-0.18,0.315,-0.077,-47.6,-45.3,10.8,12.75,389.062,-7.625,103.744,28.958,180.242,43.62,5.33,42026.05,8880.85
107346,-0.157,0.314,-0.022,-61.4,-44.6,19.3,11.688,386.125,-8.625,94.086,26.507,167.968,43.667,5.33,41785.05,8945.26
107347,-0.159,0.296,-0.047,-70,-43.9,8.9,12.125,383.625,-7.688,99.002,27.983,178.671,43.643,5.25,41569.14,9001.46
107348,-0.17,0.304,-0.024,-66.2,-44.3,0.7,11.25,380.062,-8.062,94.596,29.148,182.058,43.648,5.34,41352.19,9059.08
107349,-0.192,0.246,-0.047,-55.2,-44.7,-4.1,9.938,376.938,-8.438,100.784,37.522,190.031,43.647,5.38,41156.77,9111.17
107350,-0.182,0.256,-0.043,-45.6,-44.5,0.2,8.812,372.812,-8.688,99.533,34.997,186.542,43.687,5.29,40950.88,9167.53
107351,-0.136,0.264,-0.038,-47.3,-45.3,11.3,9.75,370.5,-9,98.189,26.916,175.718,43.659,5.27,40739.53,9223.75
107352,-0.199,0.262,-0.045,-57.6,-45.5,19.2,9.75,367.125,-8.562,99.739,36.878,171.48,43.655,5.37,40510.8,9285.74
107353,-0.089,0.29,-0.04,-68.7,-44.3,12.5,10.125,362.375,-8.062,97.86,16.884,175.422,43.666,5.32,40294.72,9345.13
107354,-0.214,0.229,-0.028,-67.7,-44.2,2.8,7.938,358.625,-8.625,97.035,42.766,181.893,43.663,5.39,40072.28,9406.24
107355,-0.093,0.288,-0.013,-55.2,-44.3,-4.2,10.25,356.812,-8.125,92.523,17.834,185.317,43.655,5.37,39847.72,9468.18
107356,-0.081,0.258,-0.049,-45.8,-45.2,-1.3,10.062,356.188,-7.688,100.724,17.166,189.68,43.669,5.39,39642.79,9525.73
107357,-0.135,0.245,-0.037,-47.3,-44.6,11.8,9.938,354.938,-8.438,98.609,28.529,175.503,43.673,5.4,39427.74,9586.17
107358,-0.116,0.223,-0.02,-59.2,-44.7,18.5,11.875,353,-7.562,95.013,27.471,168.869,43.689,5.33,39222.56,9644.58
107359,-0.1,0.208,-0.056,-68.7,-44.9,13.1,8.75,351.438,-8.375,104.982,24.825,179.268,43.689,5.34,39013.47,9703.98
107360,-0.147,0.198,-0.03,-67.7,-44.7,2.6,10.25,350.75,-9.375,98.683,36.328,182.954,43.699,5.3,38815.94,9760.76
107361,-0.085,0.237,-0.018,-56.2,-44.1,-4,11.125,348,-8.312,94.236,19.649,186.117,43.707,5.33,38622.27,9816.7
107362,-0.106,0.224,-0.018,-46.1,-44.2,0.9,10.625,346.25,-8.25,94.494,25.385,182.426,43.711,5.32,38430.54,9872.29
107363,-0.119,0.176,-0.041,-45.7,-44.1,11.8,9.062,342.062,-8.812,103.134,33.427,178.669,43.705,5.35,38239.65,9927.64
107364,-0.148,0.19,-0.026,-56.3,-43.9,18.8,9.875,339.75,-8.688,97.883,37.672,170.168,43.707,5.35,38048.54,9983.65
107365,-0.117,0.196,-0.013,-68.9,-43.9,14.6,8.25,334.688,-7.375,93.701,30.785,171.864,43.714,5.34,37862.88,10038.56
107366,-0.107,0.196,-0.026,-69.8,-44.7,3.6,7.812,331.25,-8.375,97.651,28.475,181.65,43.719,5.25,37690.11,10089.87
107367,-0.109,0.158,-0.023,-59.6,-43.8,-3.3,9.438,325.375,-8,98.427,34.368,187.517,43.75,5.28,37513.52,10143.46
107368,-0.126,0.176,-0.019,-47.9,-44.8,-1.7,7.375,322.812,-7.75,96.026,35.478,185.638,43.708,5.28,37337.64,10194.78
107369,-0.122,0.164,-0.036,-44.4,-44.9,6.5,7.938,319.312,-8.562,102.42,36.003,183.03,43.757,5.27,37170.08,10246.81
107370,-0.082,0.174,-0.022,-51.9,-43.8,16,5.562,314.25,-7.125,97.363,25.08,171.206,43.729,5.26,36995.45,10298.79
107371,-0.089,0.166,-0.023,-63.2,-44,17.7,6.438,312.5,-7.875,98.036,27.925,171.639,43.734,5.21,36823.44,10351.31
107372,-0.126,0.158,0.003,-70.2,-44.2,12,6.625,308.812,-7.438,88.939,38.525,171.149,43.744,5.25,36662.72,10400.85
107373,-0.109,0.146,-0.019,-66.9,-43.7,1.7,7.688,307.625,-6.938,97.219,36.529,182.734,43.777,5.24,36498.19,10452.56
107374,-0.096,0.15,-0.019,-56.5,-44.9,-3.8,7.438,303.188,-7.062,97.033,32.275,187.405,43.754,5.24,36335.9,10502.03
107375,-0.097,0.128,-0.019,-47.6,-44.7,-0.3,7.75,302.688,-8,98.253,36.793,185.934,43.755,5.23,36167.34,10554.48
107376,-0.102,0.128,-0.015,-44.9,-44,6.8,7.062,299.688,-7.25,96.532,38.531,178.404,43.759,5.26,36012.77,10602.95
107377,-0.039,0.161,-0.008,-52,-43.9,17.5,7.562,297.938,-7.062,92.776,13.612,165.885,43.765,5.26,35857.63,10651.93
107378,-0.053,0.138,-0.008,-62,-43.1,17.2,7.625,295.75,-7.75,93.247,20.925,168.686,43.763,5.23,35702.02,10701.03
107379,-0.078,0.149,-0.001,-68.9,-43.4,13,8.125,293.75,-7.062,90.374,27.603,171.1,43.771,5.17,35551.35,10749.16
107380,-0.075,0.134,-0.014,-68.7,-43.9,4.1,8.125,291.438,-6.812,95.835,29.211,180.27,43.778,5.18,35396.22,10798.9
107381,-0.056,0.138,-0.009,-58.2,-44.9,-2.1,6.812,288.812,-7.688,93.652,21.971,184.01,43.778,5.19,35252.4,10845.06
107382,-0.061,0.116,-0.009,-48.8,-44.6,-0.2,6.75,287.438,-9.438,94.325,27.83,183.191,43.808,5.15,35106.57,10893.09
107383,-0.071,0.126,-0.011,-45.8,-44.1,5.6,8.688,286.688,-9.062,94.874,29.416,178.299,43.78,5.19,34963.33,10938.53
107384,-0.085,0.103,-0.023,-50,-43.7,13,8.25,284.562,-8.438,102.758,38.677,177.429,43.785,5.15,34821.62,10984.86
107385,-0.057,0.117,-0.007,-59.3,-43.5,19.6,6.938,281.062,-8.188,93.338,25.758,166.827,43.785,5.13,34681.06,11030.85
107386,-0.067,0.115,-0.021,-67.3,-43.5,15.1,7.312,279.5,-8.188,100.561,29.892,175.153,43.804,5.11,34544.8,11076.3
107387,-0.069,0.099,0.001,-69.2,-44.1,6.1,6.625,276.875,-8.312,89.433,35.105,175.439,43.804,5.12,34415.87,11118.88
107388,-0.068,0.1,0.001,-64.3,-44.1,-1.1,5.125,274.5,-8.375,89.438,34.46,180.491,43.796,5.11,34277.05,11164.65
107389,-0.054,0.091,-0.017,-54.1,-44.3,-2.7,5.5,270.688,-8.5,100.359,30.189,188.823,43.798,5.08,34152.62,11206.2
107390,-0.049,0.103,-0.011,-46.7,-43.6,2.1,4.688,267.188,-8.562,95.925,25.135,182.272,43.815,5.14,34021.69,11250.61
107391,-0.071,0.089,0.004,-45.9,-44.6,9.5,5.438,264.25,-8.125,87.483,38.71,169.767,43.817,5.11,33891.42,11294.49
107392,-0.073,0.096,0.001,-51.8,-44.4,16.2,5.938,261.75,-7.688,89.415,37.426,166.243,43.809,5.03,33766.46,11336.44
107393,-0.062,0.081,-0.008,-60.2,-44,17.3,4.438,257.062,-7.5,95.505,37.507,170.223,43.815,5.03,33644.43,11378.07
107394,-0.06,0.081,0.005,-67.3,-43,14.9,3.438,253.875,-8.125,86.553,36.264,167.557,43.829,5.02,33523.13,11419.88
107395,-0.045,0.085,0.007,-69.5,-44.2,6.5,4.25,251.938,-9,85.4,27.791,173.012,43.858,5,33407.79,11460.42
107396,-0.072,0.074,0.01,-64.7,-43.6,-1.5,6.562,249.062,-8.062,82.504,43.99,176.866,43.823,5,33285.4,11501.23
107397,-0.05,0.065,-0.005,-55.7,-44.4,-3.3,6.375,245.688,-6.562,94.268,37.202,185.308,43.829,4.99,33165.89,11542.68
107398,-0.044,0.064,0.006,-47.8,-44.3,-1.3,4,243.188,-7.062,84.806,34.177,177.585,43.83,4.99,33052.65,11581.96
107399,-0.042,0.065,0.007,-46.2,-45.2,6.1,5.25,243.5,-8.25,84.036,32.551,170.273,43.842,4.96,32945.09,11619.82
107400,-0.057,0.062,0.008,-49.5,-44.7,12.9,6.312,243.938,-6.938,82.875,41.964,164.33,43.844,4.96,32837.76,11657.41
107401,-0.069,0.047,0.004,-56.4,-44.6,17.8,4.812,241.438,-5.062,85.236,55.847,162.308,43.83,4.96,32709.61,11701.86
107402,-0.059,0.052,0.006,-64.9,-43.8,15.9,3.562,240.438,-5.75,83.541,48.364,164.416,43.868,4.93,32603.76,11740.55
107403,-0.048,0.061,0.014,-69.5,-44.4,9.3,4.25,241.438,-6.75,77.276,37.629,166.778,43.836,4.95,32497.55,11776.94
107404,-0.063,0.06,0.011,-68.1,-44.3,3.3,5,239.875,-6,79.778,46.361,171.907,43.88,4.97,32390.93,11816.43
107405,-0.046,0.05,0.009,-61,-43.8,-2.1,3.812,238.312,-4.438,79.992,42.225,175.739,43.857,5.05,32294.28,11850.04
107406,-0.06,0.037,0.002,-54.1,-43.5,-2.9,1.688,236.375,-5.312,86.987,58.044,180.532,43.884,5.09,32190.05,11888.34
107407,-0.058,0.039,0.014,-46.7,-44,2,2.25,233.188,-6.438,70.71,54.311,164.798,43.864,5.11,32092.06,11922.75
107408,-0.024,0.044,0.012,-46.2,-43.5,7.7,3.75,230.625,-6,75.069,28.227,162.638,43.873,5.09,31996.72,11957.47
107409,-0.042,0.038,0.013,-50.4,-43.5,14.7,4.625,227.5,-5.5,71.565,46.288,155.681,43.876,5.03,31900.71,11992.31
107410,-0.059,0.03,0.013,-56.7,-44.2,15.8,3.312,223,-5.25,67.249,60.74,151.345,43.87,5.07,31806.37,12026.31
107411,-0.034,0.031,0.011,-64.4,-44.9,16.5,3.312,216.312,-4.688,71.03,45.967,157.083,43.897,5.04,31711.94,12061.74
107412,-0.021,0.044,0.014,-69.6,-43.5,12.6,2.688,210.125,-4.125,72.719,25.024,162.481,43.881,5.06,31620.37,12094.59
107413,-0.02,0.039,0.012,-68.7,-43.1,5.8,0.562,204.25,-4.125,73.301,25.59,167.217,43.885,5.05,31532.77,12126.89
107414,-0.02,0.027,0.02,-66.3,-44.2,2.4,1.125,199.125,-5.188,54.462,30.167,159.691,43.867,5.03,31444.75,12158.58
107415,-0.025,0.031,0.029,-59.9,-44.6,-1.1,3.188,194.688,-6.438,46.848,30.657,156.559,43.876,4.95,31359.54,12190.38
107416,-0.015,0.029,0.023,-53.7,-42.1,-3.5,4.5,190.375,-5.5,51.34,21.327,159.423,43.87,4.94,31273.98,12221.85
107417,-0.006,0.03,0.023,-47.4,-44,-0.3,4.188,184.875,-3.438,52.253,8.701,152.888,43.92,4.91,31195.93,12252.79
107418,-0.029,0.02,0.02,-45.6,-44.7,7.4,2.312,181.312,-3.25,46.397,45.971,144.8,43.871,4.91,31112.57,12281.97
107419,-0.012,0.026,0.023,-46.5,-44.8,11.2,1.688,178,-3.875,48.366,18.376,143.923,43.88,4.86,31031.36,12312.67
107420,-0.013,0.02,0.024,-51.9,-43.4,15,2.75,176.5,-4,40.03,21.711,141.7,43.892,4.8,30943.08,12346.27
107421,-0.006,0.027,0.032,-58.2,-44.1,17.7,2.812,174.062,-3.25,40.314,7.893,142.951,43.881,4.81,30870.65,12373.06
107422,-0.017,0.015,0.029,-63.2,-44.1,17.4,3.375,171.375,-2.125,26.565,26.878,140.968,43.885,4.77,30797.94,12400.67
107423,-0.012,0.02,0.032,-67.3,-43.2,14.8,2.625,167.812,-1.688,31.218,17.275,146.401,43.894,4.76,30727.28,12427.77
107424,-0.007,0.018,0.035,-69.7,-43.6,8.2,2.25,164.25,-1.875,26.565,9.866,148.91,43.897,4.75,30651.21,12456.74
107425,-0.006,0.017,0.034,-69.2,-43,4.8,1.938,158.375,-2.562,25.907,8.766,149.99,43.9,4.72,30579.16,12484.28
107426,-0.004,0.009,0.034,-66.4,-43.4,0.5,1.75,153.812,-3.625,14.421,6.316,147.873,43.901,4.75,30509.56,12510.89
107427,0.002,0.018,0.032,-61.6,-43.5,-2.8,1.375,147.562,-3.062,28.61,-3.046,148.562,43.904,4.72,30441.83,12536.9
107428,0.01,0.009,0.036,-55.5,-43.9,-2,2.375,141.688,-3.375,13.671,-14.714,140.156,43.897,4.78,30376.56,12561.67
107429,0.002,0.006,0.031,-51.5,-44.3,-1.6,2.938,134.688,-3.125,10.62,-3.515,139.595,43.894,4.78,30306.78,12588.41
107430,0.009,0.01,0.038,-48.5,-43.7,2.8,3.5,128.375,-3.375,14.381,-12.601,136.636,43.892,4.87,30250.79,12609.9
107431,0.007,0.005,0.04,-46.7,-43.4,3.6,3.688,122.312,-3.062,6.953,-9.619,136.441,43.902,4.88,30176.17,12639.14
107432,0.009,0.005,0.035,-46.7,-43.9,9.2,4.188,118.125,-2.625,7.907,-13.908,135.834,43.926,4.91,30119.28,12662.15
107433,0.01,0.002,0.044,-46.9,-44.5,11.1,3.688,114.625,-2.188,2.545,-12.517,136.737,43.921,4.96,30062.84,12683.9
107434,0.017,0.002,0.044,-49.8,-43.6,13.3,4.375,110.812,-1.438,2.545,-20.677,138.896,43.917,4.97,30005.3,12706.12
107435,0.009,0.002,0.043,-52.5,-43.9,15.9,4.375,107.562,-1.375,2.603,-11.549,140.574,43.903,4.97,29946.57,12728.46
107436,0.014,0.004,0.045,-55.6,-43.8,17.1,4,104.25,-0.875,4.97,-16.867,141.662,43.932,5.01,29891.03,12751.37
107437,0.014,-0.002,0.042,-59,-43.1,17.9,2.75,100.812,-0.438,-2.663,-18.016,145.855,43.928,4.99,29834.96,12773.18
107438,0.006,-0.008,0.043,-61.5,-43.4,17.9,2.25,96.875,-0.375,-10.305,-7.641,148.45,43.915,5.02,29782.12,12793.43
107439,0.013,-0.003,0.042,-64.8,-44.8,15.9,2.875,94,-0.75,-3.991,-16.783,147.157,43.93,4.97,29732.75,12813.45
107440,0.012,-0.007,0.043,-66.4,-43.3,13,2.375,91.062,-0.125,-9.039,-15.074,149.534,43.926,4.9,29684.32,12832.4
107441,0.024,-0.001,0.042,-67.3,-42.7,12.9,2.125,88.188,-0.75,-1.332,-30.167,146.957,43.923,4.85,29633.42,12852.41
107442,0.016,-0.006,0.044,-68.5,-44.1,9.4,1.312,86.125,-1.062,-7.595,-19.414,148.622,43.907,4.79,29583.31,12871.59
107443,0.014,-0.007,0.041,-68,-43.5,6.6,0.375,84.375,-1.375,-9.462,-18.201,148.729,43.912,4.74,29537.85,12889.84
107444,0.02,-0.014,0.044,-67.3,-43.1,4.3,-0.125,82.688,-1.875,-17.281,-22.995,149.815,43.928,4.56,29492.16,12908.64
107445,0.019,-0.014,0.039,-65.3,-43.1,2.7,-0.125,81.562,-2.438,-19.29,-24.148,149.089,43.934,4.5,29445.67,12927.41
107446,0.016,-0.014,0.042,-63.4,-43.6,2.1,-0.375,80.375,-2.75,-18.034,-19.484,147.854,43.935,4.39,29400.39,12945.53
107447,0.02,-0.013,0.041,-61.9,-42.7,-0.8,-0.625,78.5,-2.938,-17.199,-24.461,146.187,43.916,4.26,29359.96,12960.92
107448,0.018,-0.019,0.04,-59,-43.5,0,-0.5,76.938,-3.75,-24.864,-21.719,147.343,43.919,4.24,29321.28,12976.51
107449,0.015,-0.016,0.041,-58.3,-42.8,-0.3,0.312,74.875,-3.75,-20.854,-18.456,146.258,43.925,4.1,29284.94,12991.34
107450,0.018,-0.017,0.041,-55.8,-43.9,-2,-0.5,73.188,-4.375,-22.036,-21.666,144.101,43.943,4.03,29246.23,13007.6
107451,0.018,-0.017,0.043,-52.9,-43.4,-1.8,0.5,70.938,-4.875,-21.125,-20.887,142.908,43.921,3.97,29200.23,13025.2
107452,0.02,-0.02,0.043,-53,-43.6,0.9,0.938,69.688,-4.562,-24.444,-23.485,144.987,43.924,3.92,29167.73,13038.42
107453,0.026,-0.019,0.04,-50.9,-42.8,0.1,1.75,67.438,-4.688,-24.864,-30.858,143.785,43.929,3.95,29135.68,13051.56
107454,0.025,-0.021,0.041,-50.5,-43.4,2.5,1.625,65.75,-4.625,-27.646,-28.739,145.879,43.938,3.86,29096.2,13067.88
107455,0.019,-0.02,0.042,-49,-42.8,2.8,1.688,63.875,-3.812,-26.03,-21.655,145.117,43.941,3.78,29068.78,13079.1
107456,0.024,-0.019,0.044,-49.7,-43.4,5.1,2.625,62.688,-3.188,-22.891,-27.104,144.904,43.94,3.83,29037.92,13091.57
107457,0.024,-0.021,0.043,-48.6,-44.2,6.1,3.312,61.75,-3,-26.565,-26.94,146.091,43.936,3.8,29004.38,13105.02
107458,0.02,-0.021,0.041,-49.1,-43.5,7.5,3.562,60.688,-2.5,-27.646,-23.889,147.844,43.937,3.75,28980.84,13114.61
107459,0.02,-0.024,0.048,-49.7,-43.8,8.1,3.75,59.625,-2.375,-27.031,-19.98,147.738,43.945,3.76,28954.74,13125.55
107460,0.02,-0.023,0.043,-50.4,-43.2,9.7,3.688,58.938,-1.438,-28.61,-21.754,149.996,43.923,3.78,28928.69,13135.24
107461,0.023,-0.024,0.046,-52.1,-43,10.3,3.875,58.062,-1.062,-28.009,-24.267,150.907,43.932,3.8,28902.26,13146.37
107462,0.022,-0.022,0.048,-51.5,-44,11.1,4,57.25,-0.375,-25.145,-23.021,149.086,43.938,3.79,28883.31,13154.34
107463,0.023,-0.022,0.044,-52.3,-43.5,11.9,4.438,56.625,1,-27.072,-25.403,151.07,43.972,3.84,28857.68,13166.2
107464,0.023,-0.023,0.046,-53.7,-42.1,12.2,3.812,56,1.438,-27.051,-24.455,152.476,43.926,3.79,28833.43,13174.21
107465,0.021,-0.023,0.044,-54.1,-43.8,11.3,3.25,55,2.5,-28.072,-23.334,151.657,43.968,3.8,28818.37,13182.14
107466,0.022,-0.024,0.045,-54.5,-43,13.7,3.188,55.438,3.625,-28.523,-23.716,153.624,43.937,3.89,28792.98,13191.23
107467,0.021,-0.024,0.046,-55.8,-43.3,15.6,2.625,54,4.125,-28.009,-22.453,154.434,43.938,3.86,28778.14,13197.33
107468,0.02,-0.025,0.045,-56.7,-43.9,13.9,1.562,51.5,5.312,-29.476,-21.674,154.279,43.935,3.88,28764.61,13202.77
107469,0.019,-0.023,0.044,-56.2,-43.4,13.9,0.25,50.062,6.062,-28.072,-20.433,153.639,43.961,3.88,28744.03,13212.28
107470,0.02,-0.025,0.043,-58.3,-43.7,13.9,-0.875,48.875,6.375,-30.579,-22.338,155.463,43.941,3.9,28727.18,13218.38
107471,0.021,-0.025,0.043,-58.3,-42.9,12.1,-2.312,46.938,7.062,-30.579,-23.29,155.097,43.981,3.9,28714.13,13225.39
107472,0.02,-0.026,0.041,-58.1,-43.2,13.9,-4.438,45.188,6.5,-32.735,-21.829,156.713,43.94,3.84,28699.56,13229.68
107473,0.022,-0.024,0.041,-59.5,-42.3,14.1,-5.625,43.562,5.938,-30.763,-25.2,156.869,43.972,3.76,28691.21,13234.42
107474,0.023,-0.025,0.042,-59.3,-42.6,15.9,-7.812,41.688,5.75,-31.159,-25.53,157.714,43.935,3.8,28679.35,13237.75
107475,0.021,-0.025,0.042,-60,-44.6,14.6,-9.5,40,5.438,-31.159,-23.645,156.146,43.93,3.81,28669.73,13241.53
107476,0.02,-0.025,0.039,-60.1,-43.7,13.7,-10,38.562,5.062,-33.024,-23.758,157.149,43.912,3.76,28659.46,13244.99
107477,0.022,-0.024,0.037,-61.1,-44.4,15.9,-13,38.062,4.25,-33.341,-26.823,158.378,43.908,3.82,28652.03,13247.9
107478,0.023,-0.025,0.035,-63.2,-44.1,16.4,-13.75,38.188,2.562,-35.838,-28.389,160.586,43.904,3.75,28648.96,13249
107479,0.024,-0.024,0.032,-63.6,-45.2,18.4,-14.562,39.625,1.438,-37.147,-31.126,161.877,43.955,3.71,28646.22,13252.26
107480,0.025,-0.024,0.025,-63.8,-45.1,19.6,-15.062,41.812,0.312,-43.877,-35.785,166.412,43.93,3.73,28641.08,13253.33
107481,0.026,-0.024,0.025,-66.8,-44.4,19.8,-15.938,43.688,-2,-43.877,-36.817,167.201,43.921,3.69,28635.96,13255.07
107482,-0.097,0.127,-0.227,-68.6,-46,18.5,-16.312,37.812,-6.562,150.841,20.357,201.842,43.913,3.65,28634.86,13255.18
107483,0.037,-0.035,-0.033,-69.7,-44.3,17.3,-1.812,40.875,-4.188,-133.363,-37.503,212.43,43.931,3.63,28627.69,13258.87
107484,0.025,0.017,-0.012,-71.2,-46.4,17.7,-1.25,40.125,-3.875,125.218,-51.329,240.618,43.931,3.75,28624.79,13260.07
107485,0.031,0.092,-0.025,-73.7,-45.5,15.4,-2.688,38.375,-2.75,105.461,-18.165,177.18,43.903,3.9,28619.17,13261.23
107486,0.052,0.011,-0.051,-73.2,-45.3,14.2,0.25,36.562,-10.812,168.056,-44.919,229.45,43.938,4,28615.71,13264.13
107487,0.069,0.025,-0.048,-76.8,-46.5,13.7,5.375,35.062,-17.562,152.049,-52,239.306,43.898,3.97,28617.46,13261.7
107488,0.087,0.037,-0.043,-77.3,-47,13.1,6.438,30.5,-24.5,139.185,-56.846,253.004,43.926,3.9,28628.54,13258.31
107489,0.094,0.113,-0.07,-80,-47.8,11.2,-11.625,34.5,-39.562,121.827,-35.113,202.08,43.879,3.78,28636.21,13253.21
107490,0.091,0.602,0.184,-84.2,-51.5,12.1,-84.125,50,-100.75,72.969,-8.201,160.866,43.882,3.66,28641.43,13251.19
107491,0.117,1.447,0.08,-84.6,-51.3,9.8,-5.312,36.562,194.375,86.835,-4.619,171.064,43.879,3.5,28626.02,13257.38
107492,0.25,0.873,-0.02,-70,-43,5.6,-29.75,49,151.812,91.282,-15.975,175.218,43.881,3.33,28650.07,13247.58
107493,0.107,0.03,0.041,-61.5,-42.2,7.8,-37.875,25.438,18.5,36.431,-64.613,103.686,43.862,3.06,28659.33,13242.95
107494,0.111,0.111,0.053,-64.6,-42,9.9,-27.875,16.062,-101.625,64.654,-42.105,133.238,43.835,2.85,28658.84,13242.05
107495,0.136,0.264,-0.096,-77.7,-46.9,11.6,-6.25,12.625,-184.562,109.881,-25.75,185.86,43.783,2.74,28681.07,13230.71
107496,0.118,0.574,0.014,-90.2,-59.3,13.5,32.125,-0.75,-225.062,88.636,-11.625,168.968,43.797,2.61,28711.8,13218.66
107497,0.035,0.487,-0.05,-90.2,-75.1,15.9,80.125,-22,-190.688,95.836,-4.105,174.47,43.79,2.44,28728.18,13211.67
107498,-0.004,0.266,-0.029,-83.1,-83.7,20,83.312,-38.688,-162.188,96.271,0.834,172.744,43.795,2.31,28725.15,13213.12
107499,-0.091,0.253,-0.117,-71.7,-87.5,23.8,52.75,-84.062,-96.438,114.859,18.046,189.003,43.803,2.2,28722.63,13214.5
107500,-0.211,0.105,-0.089,-62.3,-87.3,28.6,26.188,-235.375,81.75,130.117,56.822,198.067,43.805,2.13,28752.42,13202.33
107501,-0.18,0.49,-0.039,-54,-83.2,29.3,167.938,-280.625,146.562,94.556,20.071,164.222,43.79,2.09,28783.27,13189.07
107502,-0.219,0.803,-0.073,-40.1,-71.9,25.7,219.75,-297.312,-15.625,95.207,15.166,161.814,43.778,2,28786.34,13187.31
107503,-0.378,0.217,-0.012,-28.7,-66.1,2.9,3.75,-348.375,-18.875,93.094,60.123,180.537,43.762,1.97,28757.7,13198.39
107504,-0.328,0.065,0.058,-48.6,-68.4,-14.7,75,-367.875,101.125,48.633,75.12,154.45,43.735,1.96,28815.19,13173.74
107505,0.123,0.356,-0.021,-76.5,-77.8,-5.3,212,-238.125,-28.438,93.449,-19.013,191.946,43.732,1.99,28862.9,13154.12
107506,-0.018,0.944,-0.156,-75.7,-89.4,14.7,154,-157.938,-198.625,99.395,1.052,180.067,43.721,2.03,28860.2,13154.75
107507,-0.012,0.575,-0.277,-57.3,-91.7,14.8,-136.812,-85.062,-139.75,115.742,1.051,204.212,43.665,1.98,28859.43,13152.75
107508,-0.279,0.602,-0.135,-51.1,-86.1,-2.8,-267.75,97.75,34.188,102.607,24.34,194.893,43.718,1.92,28820.93,13170.69
107509,-0.333,0.94,-0.007,-43.2,-74.5,-10.5,-334.375,233.375,57.375,90.416,19.499,189.559,43.721,1.92,28809.08,13175.63
107510,-0.429,0.574,-0.092,-29.2,-61.3,2.6,-285.312,288.125,-77.438,99.083,36.461,186.791,43.748,1.92,28857.46,13156.99
107511,-0.454,0.67,-0.017,-36.4,-62.7,21.6,-326.062,88.5,-13.875,91.42,34.123,163.012,43.715,1.93,28902.36,13137.33
107512,-0.516,1.795,-0.161,-40.8,-84.5,16.4,-416.812,-102.625,301.938,95.127,15.987,172.039,43.702,1.91,28948.18,13118.17
107513,-0.304,2.305,0.159,-74.6,-83.8,1.3,-173.062,-18.75,544.312,86.052,7.483,175.239,43.691,1.9,28955.99,13114.53
107514,-0.183,1.436,0.287,-71.3,-54.2,-7.7,-71.875,223.5,448.938,78.698,7.143,177.731,43.685,1.92,28983.98,13102.9
107515,-0.482,0.845,0.062,-36.4,-51.7,-0.5,-262,323.438,275.625,85.773,29.635,176.684,43.686,1.9,28983.67,13103.08
107516,-0.435,0.534,-0.078,-37.4,-72.2,25.3,-371.25,225.375,50,98.321,38.896,169.173,43.686,1.81,28996.72,13097.78
107517,-0.706,1.549,0.125,-44.9,-86.8,16.8,-465.875,-140.625,34.312,85.389,24.423,162.685,43.671,1.76,28951.07,13115.69
107518,-0.277,1.479,0.322,-67.4,-75.4,-11.1,-290,-208.75,331.25,77.712,10.379,176.28,43.659,1.69,29076.31,13064.43
107519,-0.118,0.196,0.367,-73.7,-61.5,-9.6,21,87.25,140.188,28.128,15.844,148.502,43.642,1.62,29075.13,13064.19
107520,-0.317,0.266,0.297,-57.8,-67.3,-13.3,175.125,252.062,75.312,41.925,38.499,152.58,43.64,1.48,29098.25,13054.76
107521,-0.566,0.439,-0.087,-42,-81.6,-5.4,116.75,245.375,187.75,101.187,51.66,193.499,43.611,1.41,29164.33,13026.92
107522,-0.2,0.378,-0.223,-50.3,-90.7,10.6,-12.062,276,186.688,120.504,24.532,204.646,43.589,1.36,29190.88,13015.36
107523,0.241,0.248,-0.244,-62.5,-91.5,8.8,-113.875,330.062,83.938,134.545,-34.724,259.526,43.581,1.44,29147,13032.69
107524,0.089,0.435,0.306,-58.8,-90.8,8.7,87.812,458.938,94.875,54.853,-9.472,128.124,43.581,1.51,29211.16,13006.86
107525,-0.51,0.798,0.341,-70.8,-89.5,7.8,-90,380.938,223.875,66.894,30.459,157.319,43.594,1.47,29207.78,13008.76
107526,-0.711,0.385,0.161,-62,-79.1,-8.8,-201.562,423.312,30.938,67.277,59.598,167.006,43.582,1.53,29136.51,13036.94
107527,-0.724,0.847,-0.227,-34.4,-71.7,-3.8,-112.938,260.75,82.688,105.026,39.543,197.643,43.576,1.45,29256.96,12988.26
107528,-0.413,1.221,-0.224,-35,-80.1,4.8,-113.938,154.062,190,100.373,18.397,189.44,43.584,1.37,29374.04,12941.7
107529,-0.013,1.712,-0.121,-49.5,-89.7,9.9,-99.188,172,276.375,94.044,0.424,175.952,43.54,1.36,29343.34,12952.18
107530,0.496,0.875,0.101,-65.7,-88.8,5,-113.75,308.188,98.125,83.45,-29.364,133.406,43.549,1.39,29276.69,12979.22
107531,-0.195,0.717,0.619,-54.2,-87.7,1.5,72.375,355.625,44.125,49.219,11.643,138.611,43.534,1.35,29354.64,12947.4
107532,-0.51,1.07,0.242,-61.2,-91,12.6,7.875,243.5,249.875,77.25,24.958,160.568,43.537,1.45,29407.74,12926.36
107533,-0.095,0.769,0.11,-77.1,-84.8,5.7,-140.875,173.438,286.5,81.839,6.947,168.46,43.547,1.38,29463.64,12904.47
107534,-0.436,0.695,0.295,-75.3,-66.9,-9.5,-242.812,220.5,170.562,67.015,30.027,169.932,43.552,1.35,29440.71,12913.83
107535,-0.581,0.464,0.405,-52.3,-62.3,-14,57.688,295.312,244.5,48.857,43.329,158.312,43.544,1.5,29450.84,12909.47
107536,-0.345,2.029,0.123,-40.3,-78.8,-4.5,35.562,211.875,477.75,86.532,9.619,179.702,43.538,1.33,29519.78,12881.81
107537,0.019,2.008,0.283,-63.7,-86.8,1.1,-123.375,378.688,440.062,81.975,-0.524,168.145,43.53,1.36,29467.23,12902.38
107538,-0.503,0.493,0.02,-50.6,-73.8,-11.2,-313.188,487.312,124.125,87.732,45.539,185.346,43.524,1.34,29497.71,12889.98
107539,-0.401,0.206,-0.444,-30.2,-60.1,12,-231.625,433.562,-230.312,155.121,39.334,226.908,43.5,1.22,29400.55,12927.71
107540,0.447,0.312,0.214,-62.3,-53.4,30.6,24.688,277.562,-350.125,55.613,-49.747,109.675,43.456,1.32,29577.54,12855.59
107541,0.677,0.519,0.527,-85.8,-66.1,27.1,45.438,-41.5,-293.625,44.572,-42.475,124.241,43.427,1.34,29627.25,12834.74
107542,-0.053,0.61,-0.139,-75,-81.3,33,-51.5,-129.438,-294,102.8,4.816,170.198,43.403,1.3,29706.94,12802.33
107543,-0.737,0.754,0.205,-52.1,-86,25.5,-166.25,-110.438,-257.938,74.801,43.306,152.414,43.395,1.22,29518.45,12876.52
107544,-0.73,0.557,0.654,-35.1,-79.8,4.3,-242.625,-188.125,-114.188,40.439,40.355,132.468,43.394,1.1,29556.84,12861.27
107545,-0.259,0.38,0.425,-52.1,-80.8,-10.3,19.812,-64,397.25,41.805,24.423,143.789,43.322,0.96,29627.34,12830.45
107546,-0.366,3.738,-0.032,-74.9,-80.7,-4.7,90.188,313,658.312,90.494,5.592,183.746,43.273,1.1,29751.13,12779.7
107547,-0.947,1.68,0.054,-43,-65.6,-12.7,-317.375,784.5,395.5,88.17,29.394,188.628,43.276,1.13,29719.75,12792.17
107548,-0.903,2.06,0.064,-36.5,-80.2,16.4,-577.125,145.562,177.812,88.209,23.652,163.88,43.282,1.14,29701.18,12799.71
107549,-0.909,3.804,-0.187,-67.3,-77.5,-9.8,-392.312,-168.188,642.75,92.82,13.417,189.272,43.276,1.11,29811.07,12756.3
107550,-0.282,2.698,0.235,-53.7,-56,-13.5,4.062,336.5,610.312,85.017,5.947,188.236,43.266,1.11,29894.27,12723.31
107551,-0.792,1.631,-0.34,-40,-85.5,11.4,-375.25,509.438,364.25,101.764,25.414,184.907,43.286,1.12,29860.47,12737.36
107552,-0.804,0.951,-0.432,-39.4,-82.8,1.5,-413.562,442.25,-288.062,114.457,37.599,202.99,43.266,1.11,29953.73,12700.13
107553,-0.482,1.029,-0.241,-37.2,-53,18.4,-29.188,212.875,-465.812,103.189,24.529,174.169,43.248,1.09,29922.39,12711.6
107554,-1.612,2.521,-1.018,-32.2,-57.1,11.5,-455.625,-891.062,379.875,111.989,30.67,190.666,43.238,1.03,30011.42,12676.51
107555,-0.102,0.846,-0.464,-72.9,-87,-1.1,352.188,-688.375,-136.375,118.717,6.005,208.001,43.246,1.02,30046.6,12663.17
107556,-0.346,0.542,-0.396,-58.2,-90.8,11.1,-168.312,-398.25,-103.812,126.187,27.239,206.828,43.226,1.01,30014.47,12674.85
107557,-0.488,0.239,0.302,-67.3,-85.6,-0.7,-160.375,-335.312,68.812,38.41,51.738,141.529,43.224,1.06,30032.13,12667.91
107558,0.523,0.026,0.258,-85.5,-77.7,7.3,-30.812,-235.5,144.375,5.839,-63.66,115.582,43.222,1.16,29962.49,12694.96
107559,0.711,0.162,0.258,-89.8,-71.4,17.2,264.312,61.25,52.312,32.161,-66.811,101.222,43.235,1.14,30010.94,12676.6
107560,0.55,1.327,-0.022,-87.5,-68.3,3.4,363.75,309.062,193,90.969,-22.521,177.648,43.233,1.18,30016.28,12674.45
107561,-0.03,1.932,0.553,-64.3,-69.3,-13.9,106,437.562,446.25,74.02,0.862,175.002,43.227,1.16,30142.48,12625.28
107562,-0.702,0.763,0.147,-34.8,-73.7,-4,-345.812,502.438,191.938,79.071,42.075,172.354,43.22,1.21,30146.83,12623.3
107563,-0.591,0.425,-0.296,-34.5,-73.2,23.3,-288.438,448.25,-248.5,124.859,48.821,196.25,43.184,1.15,30133.15,12627.16
107564,0.016,0.654,-0.528,-57.6,-71.5,36.4,-5.5,212.375,-383.688,128.92,-1.064,196.473,43.145,1.15,30212.04,12595.11
107565,-1.064,2.856,-0.754,-39.5,-71.9,26.4,-430.25,-758.375,-356.125,104.798,19.807,173.517,43.128,1.17,30210.13,12595.17
107566,-0.048,1.67,0.287,-62.4,-71.9,-15.4,86.375,-567,509.75,80.25,1.617,182.666,43.123,1.12,30212.09,12594.24
107567,0.616,0.73,-0.324,-86.1,-80.2,12.5,380.75,-190.312,-75.188,113.934,-37.634,226.082,43.105,1.16,30347.82,12541.32
107568,0.542,0.642,-0.732,-73.7,-80.5,31.2,234.438,-105.125,-255.438,138.738,-29.086,235.744,43.096,1.27,30299.92,12559.36
107569,0.067,1.005,-0.618,-53,-73.1,35.2,57.5,-87.375,-369.688,121.573,-3.267,189.73,43.087,1.31,30295.48,12560.69
107570,-0.111,2.054,-0.671,-46.8,-66.9,31.9,-219.125,35,-449.562,108.108,2.948,169.32,43.063,1.27,30405.2,12517.67
107571,-0.508,2.205,-0.757,-54.9,-76.8,34.7,-294.875,250.688,-405.562,108.958,12.305,173.723,43.044,1.24,30429.27,12507.71
107572,-0.263,1.06,-0.661,-58.2,-87.1,27.4,-98.75,379.688,-386.25,121.939,11.871,196.897,43.052,1.21,30428.22,12508.44
107573,0.087,0.442,-0.672,-59.5,-82.5,31.7,175.812,369.375,-237,146.676,-6.16,225.039,43.05,1.26,30450.56,12499.8
107574,0.51,0.379,-0.114,-81.2,-69.7,31.1,226.062,312.312,-24.062,106.78,-52.229,43.672,43.032,1.3,30491.34,12483.52
107575,0.443,0.202,0.456,-90,-64.2,13.5,132.75,239,78.5,23.906,-41.63,132.204,43.014,1.31,30480.7,12486.88
107576,0.28,0.122,0.374,-80.9,-58.3,-3.6,69.25,131.25,99.875,18.075,-35.465,134.524,43.018,1.31,30576.18,12450.68
107577,0.141,0.138,0.91,-74,-58.5,-9.1,62,30.688,102.062,8.603,-8.686,141.289,43.014,1.31,30611.86,12436.98
107578,0.168,-0.168,0.814,-71.5,-59.4,-11,92.312,-155.5,74.625,-11.653,-11.419,139.344,43,1.34,30573.5,12451
107579,0.409,-0.021,0.273,-86.2,-68.9,3.6,69.75,-306.312,-161.312,-4.493,-56.165,129.033,42.998,1.32,30666.17,12415.77
107580,0.062,1.639,-0.061,-81,-84.3,21.8,-328.688,-289.438,-180.812,92.115,-2.181,166.487,42.982,1.34,30761.35,12379.13
107581,0.526,0.797,0.372,-81.9,-84,12.1,-138.812,-146.938,186.875,64.998,-30.876,126.072,42.966,1.34,30591.05,12443
107582,0.583,0.177,0.304,-88.3,-77.2,13.5,153.5,169.062,75.75,30.199,-58.921,106.887,42.954,1.3,30654.92,12418.28
107583,0.02,1.521,0.064,-79.3,-76.3,-2.5,284,570.438,167.375,87.574,-0.772,179.464,42.973,1.33,30862.04,12340.89
107584,-0.828,1.401,-0.587,-46.6,-87.5,2.2,-25.375,885.062,272.438,112.725,28.593,201.673,42.953,1.33,30910.32,12321.98
107585,-0.851,0.584,-0.106,-59.1,-90.8,14.9,-156.875,805.188,65.438,100.33,55.12,180.851,42.956,1.36,30859.72,12341.08
107586,-0.504,1.229,0.229,-55.5,-87.3,-1.4,-318,252.25,52.938,79.427,21.944,170.071,42.933,1.35,30866.18,12337.75
107587,-0.41,1.384,0.28,-49.5,-70.9,-14.1,-314.375,132.562,179.688,78.558,16.188,179.793,42.916,1.26,30854.84,12341.34
107588,-0.561,1.016,0.604,-35.9,-66.8,-8.5,-183.562,269.25,286.5,59.263,25.397,155.513,42.89,1.16,30892.69,12326.12
107589,-0.595,1.972,0.041,-40,-84.7,5.8,-219.812,221.188,435.812,88.809,16.8,173.129,42.876,1.12,30957.94,12301.13
107590,-0.867,2.226,0.061,-66.2,-84.6,-2.2,-292.438,461.875,419.812,88.418,21.264,179.915,42.849,1.11,30948.97,12303.42
107591,-0.886,1.467,0.073,-37.1,-62.7,-9.7,-441.5,484.188,96.25,87.143,31.106,185.822,42.834,1.01,31038.09,12269.54
107592,-0.553,1.505,-0.688,-31.7,-67.9,16.7,-404.312,189.562,47.688,114.57,18.49,194.122,42.793,0.99,31064.68,12258.04
107593,-0.402,1.029,-0.078,-43.4,-82.2,24.4,-271.625,242.312,24.438,94.341,21.294,165.667,42.783,0.93,31135.52,12231.27
107594,-1.139,1.324,0.856,-59.2,-89.9,23.2,-61.5,394.625,-75.375,57.126,35.84,141.168,42.734,0.96,31179.44,12213.06
107595,-0.185,0.83,-0.174,-69.6,-91.5,21,-21.25,303.188,-13.312,101.827,12.341,178.829,42.717,0.93,31168.81,12216.35
107596,-0.002,0.211,-0.197,-66.8,-91.1,13.2,-3.25,275.25,-121.75,133.082,0.387,217.998,42.698,0.93,31234.88,12191.13
107597,-0.028,0.461,-0.165,-54.3,-90.3,13.8,64.688,264.25,-146.062,109.7,3.311,196.372,42.694,0.95,31260.38,12181.53
107598,-0.175,1.234,-0.061,-42.9,-83.7,20.8,-17.188,262.688,-351.25,92.808,8.051,162.938,42.706,0.98,31256.3,12183.52
107599,-0.73,1.226,-0.669,-50.4,-67.8,35.1,0.438,394.438,-417.625,118.607,27.602,181.18,42.714,1.02,31154.53,12221.53
107600,-0.065,1.375,-0.685,-78.5,-71.8,32.7,141.688,281.938,-460.438,116.484,2.437,181.926,42.707,1.03,31234.63,12191.59
107601,0.287,1.327,-0.691,-76.2,-80.7,31,377.688,221.75,-310.062,117.501,-10.855,189.453,42.682,1.11,31326.1,12156.82
107602,0.468,0.759,-0.236,-82.8,-69.2,31.2,406.125,177.062,-98.875,107.279,-30.503,164.404,42.667,1.15,31337.3,12152.11
107603,0.133,-0.021,0.082,-84.9,-61.8,26.3,388.188,-377.75,-282.625,-14.676,-57.443,146.524,42.656,1.17,31264.65,12178.5
107604,-0.811,4.118,-0.522,-48.7,-70.3,34,-403.875,-495.375,-524.312,97.227,11.056,158.127,42.666,1.11,31346.29,12148.75
107605,-0.725,1.84,0.517,-36.5,-75.8,-7.6,-384.75,-375.25,322.188,74.296,20.779,167.739,42.611,1.07,31351.13,12144.85
107606,0,0.793,0.266,-66.6,-79.9,-6.7,216.312,36.75,266.5,71.417,0,163.989,42.619,1.06,31466.71,12102.67
107607,-0.175,0.713,0.201,-70,-85.2,0,117.812,287.5,251.688,74.262,13.262,165.115,42.578,1.06,31567.52,12064.2
107608,-0.058,0.595,0.036,-68.7,-80.2,-7.6,-61.938,318.75,239.625,86.529,5.514,182.054,42.577,1.06,31522.54,12080.6
107609,0.257,1.349,0.466,-53.7,-77.8,-9.9,-65.375,351.125,352.625,70.958,-10.198,157.795,42.578,1.03,31445.46,12108.9
107610,-0.656,1.018,0.262,-38.2,-79.6,-3.5,-172.188,502.25,227.188,75.59,31.965,167.437,42.586,1.08,31504.54,12087.55
107611,-0.8,1.335,-0.14,-48.1,-88.7,6.1,-349.438,215.375,263.25,95.968,30.802,182.081,42.58,1.04,31498.79,12089.41
107612,-0.63,1.078,0.263,-47.7,-74.6,-12.2,-404.75,227.625,22.875,76.306,29.619,175.781,42.571,1.08,31472.6,12098.65
107613,-0.8,0.92,0.412,-34.7,-60.7,-7.6,-295.688,29.688,175.188,65.891,38.44,164.306,42.572,1.15,31555.24,12068.45
107614,-0.512,1.77,0.689,-34.6,-69.1,-7.8,-136.375,-63.062,420,68.734,15.094,160.736,42.547,1.13,31661.18,12028.84
107615,-0.074,1.59,0.336,-53.4,-86.4,-1.3,33.312,195.812,404.062,78.076,2.614,163.839,42.546,1.16,31678.53,12022.5
107616,-0.569,0.904,0.54,-61.1,-88.7,3.8,79.188,438.812,293.625,59.155,28.393,151.302,42.524,1.19,31741.13,11998.89
107617,-0.264,1.012,0.032,-69.7,-81.7,-4.3,-204.562,405.188,329.438,88.177,14.587,181.106,42.526,1.2,31760.45,11991.98
107618,-0.762,0.618,0.374,-39.5,-60.8,-10.9,-196.188,465.438,-20.688,58.824,46.55,162.21,42.522,1.21,31731.25,12002.41
107619,-0.752,0.359,-0.271,-30.4,-64.2,14.5,-39.375,193.875,174.188,127.069,59.113,202.023,42.509,1.13,31842.88,11961.48
107620,-0.333,0.788,-0.09,-36.5,-79.7,16,-39.812,-154.75,321.625,96.504,22.774,173.968,42.477,1.03,31936.86,11926.35
107621,0.245,1.055,-0.345,-57.3,-89.6,20.4,205.75,-43,306.562,108.084,-12.447,193.085,42.434,1.03,31768.8,11985.45
107622,0.353,0.527,-0.594,-76,-75.9,33.7,120.688,24.5,149.75,138.437,-23.977,221.637,42.417,1.07,31854.84,11953.67
107623,0.436,0.055,-0.202,-77.6,-74.4,33.5,-54.625,16.438,-27.375,164.862,-64.371,281.742,42.445,1.06,31859.54,11953.04
107624,0.428,0.197,-0.382,-77,-82,30.3,-131.938,-0.875,-110.125,152.678,-44.929,261.392,42.433,1.07,31957.08,11917.42
107625,0.502,0.123,-0.471,-69,-89.4,19.9,-132.688,-5.688,-113.062,165.379,-45.839,257.497,42.401,1,31961.96,11914.45
107626,0.238,0.428,-0.085,-59.6,-91.9,12,-136.812,-27.75,-103.562,101.21,-28.599,217.094,42.411,0.98,32129.75,11854.62
107627,-0.117,1.932,0.177,-44.5,-80.7,-6.5,-241.688,-62.875,-312.688,84.774,3.456,178.981,42.389,0.94,32000.05,11900.28
107628,-0.494,0.208,0.801,-45,-66.2,-11.9,107.125,-169.375,-151.25,14.544,30.819,130.978,42.394,0.88,31987.31,11905.07
107629,-0.387,0.367,0.79,-59.7,-74.9,-12.1,232.75,-231,-106.438,24.928,23.99,138.831,42.357,0.83,32082.79,11869.39
107630,-0.165,1.171,0.415,-65.4,-89.8,6.3,332.312,-159.062,-138.5,70.498,7.562,154.615,42.36,0.82,32130.75,11852.35
107631,-0.933,0.915,-0.06,-49.1,-83.9,26.1,274.062,-227.25,-226.5,93.721,45.484,167.806,42.322,0.88,32015.11,11892.36
107632,-0.765,0.233,0.37,-30,-70.5,1.7,55.812,-530.938,-10,32.236,60.252,127.4,42.312,0.87,32206.88,11823.38
107633,0.037,0.265,0.384,-55.7,-76.1,-12.2,182.688,-397.25,-88,34.688,-4.546,132.679,42.29,0.86,32194.48,11826.95
107634,0.022,0.804,-0.08,-66.7,-88.1,0.3,102.188,-266,-262.875,95.683,-1.591,187.472,42.251,0.9,32367.73,11763.92
107635,-0.547,2.355,0.01,-44.9,-85.5,-2.5,-132.125,-165.25,-352.938,89.763,13.066,181.949,42.269,0.88,32142.39,11844.8
107636,-0.788,1.118,0.087,-47.7,-67.9,-15,-250.5,-200.688,197.25,85.559,35.072,187.033,42.219,0.84,32284.63,11792.23
107637,-0.264,1.669,0.722,-60.2,-64.8,-15,99.625,-75.625,440.625,66.6,8.245,170.153,42.189,0.83,32317.08,11779.56
107638,0.304,1.563,0.433,-65.6,-76,-10.5,239.312,114.938,403.875,74.5,-10.602,168.587,42.209,0.87,32272.5,11796.15
107639,-0.124,1.25,0.98,-68.9,-81.1,-5.6,159,254.812,313.25,51.912,4.462,148.321,42.214,0.97,32409.29,11747.85
107640,-0.543,0.796,-0.198,-60.5,-80.4,-9.1,-63.188,544,302.5,103.97,33.473,197.015,42.215,1.02,32324.96,11777.75
107641,-0.747,0.167,-0.555,-29.4,-72.4,3.8,-303.688,630.375,-118.625,163.273,52.165,241.298,42.197,1.07,32446.03,11734.21
107642,-0.098,0.724,-0.775,-47,-61.5,30.8,13.938,269.625,-397.375,136.939,5.257,204.394,42.15,1.08,32405.21,11746.89
107643,-0.029,1.052,-0.769,-67.4,-61.9,34.6,-98.75,32.5,-421.188,126.166,1.287,187.105,42.112,1.09,32464.07,11724.69
107644,-0.176,0.784,-0.689,-67.5,-79.2,34.5,-47,55,-382.312,131.322,9.556,198.207,42.098,1.07,32485.07,11716.77
107645,-0.202,0.579,-0.646,-56.9,-80.8,32.9,-5.562,116.75,-313.938,138.147,13.111,207.577,42.113,1.05,32560.43,11690.79
107646,0.021,0.409,-0.588,-53.5,-78.4,32.9,-8.562,125.625,-291.062,145.162,-1.718,221.591,42.111,1.06,32609.58,11673.45
107647,0.221,1.304,-0.603,-50.2,-76,32.8,-149.188,42.812,-412.438,114.824,-8.729,183.302,42.096,1.12,32595.03,11678
107648,-0.49,3.204,-0.256,-36.4,-72.4,24.8,-366,29.812,-447.562,94.563,8.667,158.095,42.085,1.18,32643.68,11660.52
107649,-0.804,1.555,-0.065,-35.1,-74,20.9,-410.688,-60.688,-101.188,92.408,27.33,164.826,42.061,1.2,32671,11650.04
107650,-0.638,1.229,0.531,-39.9,-85.1,5.4,-180.812,-72.75,283.375,66.631,25.494,150.605,42.03,1.25,32699.82,11638.84
107651,-0.099,1.09,0.397,-66.8,-90.9,5.6,11.938,96.938,308.938,69.98,4.856,153.705,42.007,1.29,32866.22,11579.96
107652,-0.001,1.234,0.141,-77.4,-82,1.2,-22.375,240.312,146.875,83.501,0.045,172.3,42.018,1.32,32894.29,11570.6
107653,-0.006,0.342,0.286,-64.8,-77.1,-10.7,-53.312,262.062,70,50.066,0.753,147.839,41.985,1.42,32892.21,11570.12
107654,-0.196,1.173,0.212,-46.3,-73.5,-11.7,-47.688,232.5,114.375,79.766,9.345,178.469,41.973,1.54,32889.41,11570.66
107655,-0.209,1.336,0.261,-40.3,-79.2,-6.2,-87.438,183.25,268.062,78.964,8.723,170.063,41.961,1.6,32953.91,11547.82
107656,-0.485,1.343,0.308,-49.2,-84.5,-2.5,-124.188,262.25,265.688,77.066,19.394,167.438,41.974,1.63,32939.4,11553.33
107657,-0.348,1.448,0.623,-56.6,-88.3,-0.7,-91.812,320.375,292.312,66.736,12.462,154.826,41.97,1.62,32930.15,11556.4
107658,-0.647,2.104,0.257,-62.9,-81.4,-6.9,-204.312,318.125,375.375,83.045,16.975,177.949,41.971,1.56,32968.95,11543
107659,-0.502,1.605,0.013,-44.6,-65.8,-13.5,-349.812,366.562,182.562,89.547,17.361,191.781,41.953,1.36,32933.57,11554.57
107660,-0.358,0.465,0.018,-29.7,-62.9,9.4,-349.25,309.25,16.438,87.834,37.613,169.195,41.938,1.29,32988.88,11534.86
107661,-0.39,-0.037,-0.086,-38.4,-70.3,26.5,-272.688,162.812,-123.812,-156.644,76.524,265.804,41.888,1.2,33064.08,11507.07
107662,-0.486,0.286,-0.295,-45.1,-79.2,26.8,-243.062,119.188,-98.188,135.867,49.804,203.958,41.815,1.11,33135.83,11479.66
107663,-0.238,0.493,-0.302,-45.7,-87.4,21.7,-286.688,78.625,-64.562,121.462,22.398,199.877,41.799,1.07,33164.32,11469.3
107664,-0.555,1.395,-0.068,-45,-84.9,-1.2,-375.938,-57.875,27.688,92.804,21.688,184.186,41.742,1,33069.04,11500.04
107665,-0.392,1.243,0.442,-48.6,-69,-14.5,-292.812,23,126.875,70.426,16.558,171.908,41.741,0.99,33117.83,11483.18
107666,-0.505,0.731,0.204,-39.6,-60.6,-12.4,-126.938,109.812,175.562,74.409,33.618,176.298,41.738,1,33174.84,11463.46
107667,-0.477,1.159,0.546,-33.5,-68.6,-5.7,-78.688,60.875,323.562,64.801,20.428,155.956,41.689,0.97,33257.97,11433.15
107668,-0.232,1.401,0.295,-47.5,-87.4,-1.7,-45.688,139.25,357.938,78.115,9.219,164.924,41.706,0.96,33278.45,11426.78
107669,-0.33,1.093,0.402,-60.7,-89.4,1.3,-15.5,317,257,69.804,15.814,158.426,41.696,1.03,33331.46,11408.29
107670,-0.224,1.58,0.243,-68.5,-85.7,-2.2,-35.625,288.438,334,81.256,7.993,172.242,41.637,1.06,33338.81,11403.65
107671,-0.627,1.902,0.161,-64.7,-72.5,-12.6,-148.812,337.625,315.188,85.161,18.171,184.366,41.64,1.08,33346.18,11401.22
107672,-0.568,1.298,0.312,-35.5,-65.3,-9.4,-212.75,430.312,163.062,76.472,23.047,174,41.699,1.11,33321.1,11411.92
107673,-0.73,1.015,-0.045,-33.8,-73,19.8,-226.625,328.125,59.75,92.533,35.698,166.788,41.669,1.04,33380.32,11390.64
107674,-0.545,0.729,0.084,-48.3,-85.1,23,-257,172.375,10.188,83.433,36.579,159.598,41.652,0.97,33452.15,11365.58
107675,-0.516,0.473,0.28,-50.5,-90.5,14.5,-229.75,154.375,-67.25,59.385,43.188,145.454,41.662,0.98,33396.6,11384.84
107676,-0.629,0.433,0.285,-48.1,-87.9,1.1,-211.5,23.688,58.125,56.669,50.471,150.444,41.653,0.97,33419.26,11376.79
107677,-0.332,0.853,0.504,-58.6,-81.7,-7.5,-153.312,-78.938,257.875,59.443,18.52,156.091,41.633,0.94,33537.63,11335.88
107678,-1.481,0.482,0.175,-76.6,-73.6,-5.4,81.5,-2.625,223.312,70.082,70.896,167.762,41.619,0.94,33543.73,11333.29
107679,-0.779,0.793,0.633,-70.8,-74.7,-9.3,135.625,362.125,53.562,51.366,37.513,157.537,41.604,0.96,33606.25,11311.59
107680,-1.408,0.879,0.599,-42,-81.3,-1.5,102.312,378.688,0.688,55.727,52.926,150.768,41.603,1.01,33683.65,11285.43
107681,-1.599,0.761,0.555,-34.9,-79.9,10,69.75,-67.812,-122.375,53.89,59.484,141.052,41.612,1.06,33666.4,11291.56
107682,-0.257,0.956,-0.381,-36.1,-66.5,-9.1,-278.75,-302.125,-49.25,111.701,14.001,213.907,41.606,1.02,33613.98,11309.06
107683,-0.095,0.127,0.581,-47.6,-53.7,-11.9,-129.938,-129.75,38.25,12.325,9.049,135.408,41.591,0.99,33701.47,11278.99
107684,0.104,-0.518,0.048,-52.3,-52.7,-13.5,210.875,26.188,66.812,-84.728,-11.346,163.405,41.573,0.99,33782.27,11251.16
107685,0.126,1.063,0.412,-46.9,-78,-11.9,366.5,85.375,201.938,68.818,-6.303,155.877,41.562,1.02,33838.46,11231.89
107686,0.35,1.032,0.089,-63,-92.8,14.2,278.312,94.125,278.5,85.079,-18.695,144.002,41.571,1.08,33753.18,11260.84
107687,0.826,0.633,-0.179,-75.7,-84.1,30.2,276.125,73.062,-28.125,105.747,-51.443,15.491,41.559,1.11,33787.63,11248.84
107688,0.643,1.293,-0.299,-77,-74.3,32.3,283.125,173.938,-188.062,103.004,-25.855,156.879,41.535,1.13,33799.4,11244.05
107689,0.427,0.591,0.098,-86,-72.8,26.6,166.062,227.188,-174.25,80.63,-35.494,128.98,41.513,1.08,33901.3,11209.1
107690,0.052,0.472,-0.037,-83.5,-81.7,17.8,230.25,191.375,-127.812,94.489,-6.23,171.281,41.492,1.04,33986.29,11179.97
107691,0.167,0.481,-0.281,-82.7,-82.1,19.4,267.125,197.062,14.562,120.293,-16.673,203.739,41.462,1.03,33846.08,11225.78
107692,0.7,0.457,-0.313,-87.9,-75,16.6,214.875,199.688,155.188,124.446,-51.638,272.603,41.441,1.02,33948.43,11190.8
107693,0.396,-0.047,0.232,-83.8,-78.6,4.4,0.812,44.75,-252.938,-11.402,-59.12,128.247,41.418,0.97,34017.72,11166.87
107694,-0.03,1.326,0.17,-61.3,-88.8,2,-62.062,-83.375,-439.188,82.704,1.296,168.162,41.404,0.92,34101.59,11138.47
107695,-0.535,1.84,0.257,-37.7,-69.4,-11.3,-198.062,-40.188,-294.875,82.057,16.063,181.648,41.391,0.92,33929.39,11195.35
107696,-0.556,0.367,-0.056,-36.3,-61.7,-10.4,135.375,128.875,115.812,98.62,56.289,195.676,41.396,0.92,34067.54,11149.51
107697,-0.444,2.253,-0.065,-40.4,-84.4,4.1,189.375,124.125,405.062,91.663,11.148,178.312,41.397,0.91,34129.08,11129.1
107698,0.206,0.742,-0.484,-70.3,-89.3,18.3,28,168.875,228.562,123.13,-13.089,214.196,41.399,0.92,34126.65,11129.97
107699,0.598,0.042,0.016,-76,-88,12.8,74.375,192.75,-135.5,69.59,-85.72,30.619,41.372,0.97,34164.28,11116.56
107700,0.258,0.281,0.039,-62.5,-90.6,15.1,165.438,108.688,-141.125,82.093,-42.238,65.227,41.367,0.94,34269.62,11081.53
107701,0.164,0.311,-0.209,-57.2,-84.3,31,211,118.75,-67.75,123.856,-23.622,230.592,41.357,0.97,34237.63,11091.76
107702,0.407,0.231,-0.636,-64.9,-70.5,37.2,217.25,145.062,21.312,160.024,-31.01,244.795,41.351,0.97,34113.55,11132.63
107703,0.573,0.21,-0.574,-75.9,-55.2,29.9,175,165.5,106.188,159.915,-43.155,240.841,41.335,0.93,34309.46,11067.26
107704,0.528,0.964,-0.115,-85.9,-56.3,20,101.375,84.625,-316.75,96.811,-28.533,164.53,41.273,0.86,34337.92,11055.72
107705,0.071,1.621,-0.161,-84.2,-79.7,21.1,204.688,19.25,-393.938,95.673,-2.504,170.752,41.223,0.87,34371.69,11042.85
107706,-0.678,1.152,-0.495,-63.1,-85.4,30.2,194.375,0.062,-251.938,113.251,28.42,183.465,41.192,0.89,34310.65,11061.83
107707,-0.484,0.329,-0.341,-47.3,-80.7,29.7,-63.375,-173.312,-90.938,136.002,45.634,202.939,41.181,0.84,34461.25,11011.97
107708,-0.607,0.399,0.025,-40.3,-85.3,12.8,-196,-183.938,153.812,86.363,56.62,168.887,41.166,0.79,34430.4,11021.56
107709,-0.356,2.455,-0.048,-71.3,-87,4.1,-9.312,-147.375,551.688,91.116,8.256,178.342,41.15,0.82,34489.91,11001.49
107710,0.874,1.789,0.035,-89,-61.9,8.2,299.188,241.375,330,88.875,-26.046,169.902,41.167,0.87,34396.07,11032.85
107711,0.087,1.707,0.473,-59.6,-66.1,-14.2,321.5,320.875,318.375,74.501,-2.807,175.951,41.154,0.97,34569,10975.79
107712,-0.078,2.729,0.465,-59.6,-88.1,1,251.75,347.188,462.625,80.338,1.616,165.732,41.137,1.01,34585.78,10969.72
107713,-0.788,0.754,0.13,-70,-82.8,-1.9,-16.75,569.75,231.75,80.237,45.815,173.544,41.144,1.04,34625.96,10956.86
107714,-0.314,0.882,0.062,-49.9,-82.4,-6.7,-8.25,361.562,222.312,85.95,19.56,180.663,41.159,1.12,34744.35,10918.88
107715,-0.085,1.192,-0.096,-51.8,-88,1,-1.125,479.125,194.5,94.589,4.063,185.96,41.163,1.09,34718.88,10927.29
107716,-0.382,0.667,0.231,-57.2,-90.5,9.7,-29.562,495.875,156.125,70.863,28.406,156.539,41.162,1.13,34754.99,10915.52
107717,-0.218,1.2,0.397,-65.5,-89.6,5.9,-113.375,407.875,172.438,71.677,9.773,156.77,41.143,1.03,34745.61,10917.91
107718,-0.294,1.205,0.418,-60,-83.3,-5.7,-156.125,432.75,113,70.886,12.968,164.041,41.155,1.03,34646.47,10950.57
107719,-0.673,0.529,0.075,-37.1,-79.9,-1.1,-26.688,468.25,39.125,81.914,51.572,173.203,41.138,1.07,34800.32,10900
107720,-0.336,0.987,-0.264,-41,-83,19.1,-71.188,385.062,78.75,104.953,18.198,182.588,41.117,1.02,34863.19,10878.94
107721,-0.073,0.247,-0.098,-60.8,-87.4,26.9,9.812,422.812,-78.188,111.567,15.413,184.905,41.079,1,34923.27,10858.22
107722,-0.142,0.149,-0.086,-77,-86,23.6,103.125,425.875,-21.875,119.906,39.597,191.093,41.072,1.03,34969.17,10843.2
107723,-0.06,0.32,-0.07,-80,-84.9,8.6,107.625,426.062,25.188,102.381,10.296,185.962,41.076,1.05,34976.26,10841.04
107724,0.127,1.709,-0.006,-69.4,-87.6,3.2,272.875,404.938,84.688,90.196,-4.246,177.353,41.071,1.06,34932.21,10855.06
107725,0.076,1.91,0.061,-71.6,-89.4,15.9,276.75,631,190.625,88.156,-2.281,164.572,41.075,1.1,34822.14,10890.76
107726,-0.496,2.023,0.704,-80.8,-77.1,1.3,107.875,487.25,391.312,70.822,13.032,164.389,41.052,1.11,34943.45,10850.79
107727,-0.532,2.483,0.73,-62.1,-65.9,-15.3,1.062,256.5,505.875,73.615,11.614,176.992,41.045,1.14,34973.12,10841.01
107728,-0.386,1.471,0.597,-43.3,-69.9,-11.4,-119.875,266.812,426.5,67.898,13.683,164.919,41.032,1.22,35048.34,10816.38
107729,-0.344,1.77,0.637,-47.5,-83.6,-4.7,26.812,112.062,464.938,70.202,10.347,158.655,41.033,1.18,35085.99,10804.32
107730,-0.353,1.903,0.355,-75.8,-84.3,4.8,82,249.312,392.688,79.426,10.342,167.26,40.99,1.18,35115.75,10793.3
107731,-0.589,0.918,0.342,-67.9,-72.3,-9.6,-5.5,434.5,160.812,69.598,30.989,170.301,40.985,1.07,35101,10797.85
107732,-0.345,0.933,0.091,-39.5,-79,-7.1,39.5,367.688,128.312,84.444,20.179,179.482,40.953,1.03,35188.53,10768.75
107733,-0.16,0.622,-0.073,-36.8,-83,6.8,-164.875,303.688,8.5,96.715,14.343,183.003,40.944,0.94,35244.49,10750.61
107734,-0.342,0.276,0.172,-37,-80.2,16.9,-128.938,284.938,-165.812,58.122,46.403,140.329,40.892,0.86,35177.51,10770.18
107735,-0.856,0.317,0.003,-43.1,-73.7,29.7,-39.5,238.375,-140.75,89.471,69.665,160.079,40.876,0.83,35214.24,10757.92
107736,-0.579,0.895,0.019,-50.2,-83.8,26.3,-295.75,-51.375,189,88.813,32.884,162.209,40.861,0.82,35322.96,10722.78
107737,-0.217,2.427,0.069,-77.9,-85.6,12.9,-186.688,5.188,498.938,88.365,5.099,169.791,40.843,0.8,35162.86,10773.21
107738,0.081,0.984,0.496,-82,-56.1,1.5,83.938,190.25,376.5,63.253,-4.205,161.212,40.831,0.83,35312.94,10724.93
107739,-0.096,1.861,0.47,-56.2,-55.5,-14.7,246.562,143.625,420.625,75.815,2.852,180.633,40.842,0.88,35388.39,10701.34
107740,-0.304,2.038,0.264,-47.8,-82.5,-5.5,170.625,302.688,408.375,82.632,8.403,175.064,40.827,0.9,35397.3,10698
107741,-0.648,0.594,0.164,-56.4,-89.8,6,-7.5,493.5,98.188,74.578,46.426,163.545,40.842,0.9,35422.75,10690.45
107742,-0.499,0.146,0.092,-56.8,-90.9,14.3,38.938,417.75,39.062,57.926,70.893,144.352,40.818,0.9,35511.84,10661.47
107743,-0.277,0.035,-0.234,-65.2,-91.3,16.2,-12.625,398.375,33.812,171.469,49.485,233.584,40.793,0.86,35529.57,10655.02
107744,0,0.198,-0.122,-66.2,-91,8.3,-49,397.625,-11.938,121.623,0,211.55,40.781,0.84,35564.33,10643.65
107745,-0.077,1.277,0.183,-49.5,-86.7,-0.4,-118.875,312.125,-202.438,81.821,3.421,167.652,40.791,0.84,35497.97,10664.92
107746,-0.619,1.173,0.563,-31.9,-75.7,10,-73.5,260.125,-32.625,64.357,25.431,143.403,40.757,0.85,35457.36,10676.6
107747,-0.64,0.436,0.342,-38.6,-83,15.3,-234.562,116.75,77,51.939,49.126,136.895,40.76,0.84,35479.59,10669.68
107748,-0.58,0.615,0.409,-41.9,-86.7,9,-213.688,133.75,4,56.373,38.135,143.296,40.727,0.96,35463.61,10673.6
107749,-0.752,0.652,-0.107,-45.2,-87.6,7.2,-0.75,206.125,153.625,99.351,48.714,184.262,40.716,1.02,35633.66,10619.62
107750,-0.347,2.874,0.043,-71.7,-88,18.1,75.938,260,425,89.144,6.892,166.635,40.689,1.05,35705.16,10596.25
107751,0.142,0.586,0.213,-76.3,-76,-4.2,142.875,515.125,122,70.032,-12.797,159.309,40.66,1.06,35604.08,10627.03
107752,-0.288,1.347,0.673,-56.8,-83.6,-5.6,108.5,419.125,319.875,63.435,10.824,155.271,40.654,1.06,35699.53,10596.83
107753,-0.716,0.906,0.265,-56.7,-88.2,-1.6,41,438.688,274.25,73.664,37.199,166.456,40.656,1.12,35732.54,10586.54
107754,-0.284,1.422,0.128,-66.8,-90,3.8,77.062,345.312,314.875,84.862,11.251,171.873,40.66,1.16,35924.75,10526.63
107755,-0.119,1.126,-0.042,-70.7,-83.6,-2.2,32.562,515.25,280.312,92.134,6.031,183.843,40.62,1.19,35827.35,10555.65
107756,-0.459,0.793,0.603,-51.6,-81.3,-7,-73.312,446.25,265.875,52.76,24.713,150.046,40.595,1.16,35826.67,10555.04
107757,-0.575,0.429,0.528,-43.4,-82.3,-4.2,-226.312,389.812,140,39.122,40.186,138.332,40.57,1.2,35815.47,10557.69
107758,-0.661,0.066,-0.085,-32.4,-77.1,5.9,-205.688,335.625,-57.562,141.988,80.736,225.226,40.537,1.14,35966.48,10509.52
107759,-0.602,0.927,-0.142,-33.6,-80.4,7.6,-220.625,-29.688,159.25,98.678,32.702,183.678,40.471,1.05,35999.19,10497.15
107760,-0.346,0.765,0.009,-50.1,-88.8,1.4,-36.812,5.625,255.938,89.342,24.36,178.315,40.412,1.01,36102.42,10463.2
107761,0.095,0.995,-0.036,-69,-88.1,5.2,94.812,93.312,245.062,92.08,-5.434,178.102,40.359,0.99,36036.13,10481.96
107762,0.819,0.41,0.274,-81.9,-82,7.5,47.688,217.688,223.188,56.216,-58.939,76.386,40.357,1.02,35920.33,10517.84
107763,-0.138,-1.797,0.778,-72.5,-71.7,-9.9,-36.812,358.375,-4.875,-66.591,4.02,151.073,40.353,1.02,36069.74,10471.34
107764,-0.139,1.244,0.419,-41.4,-83.1,0.7,441.312,216.812,-42.562,71.403,6.026,151.202,40.36,1.04,36166.28,10441.73
107765,-0.055,2.893,-0.321,-48.3,-76.4,30.6,493,156.062,225.75,96.334,1.076,156.172,40.361,1.06,35980.58,10499.26
107766,0.463,0.817,-0.62,-59.3,-58,33,76.875,190.562,217.125,127.186,-24.283,198.081,40.365,1.14,36165.12,10442.26
107767,0.516,0.371,-0.173,-76.1,-63,33,-134.375,198.938,-197.562,114.976,-51.605,21.491,40.327,1.18,36184.27,10435.09
107768,0.458,0.303,0.164,-82.8,-78.4,24.3,-9.562,164.375,-261,61.545,-53.064,93.815,40.254,1.14,36209.32,10424.95
107769,0.01,0.389,0.108,-70.2,-88.9,19.7,95.25,147.688,-225.812,74.454,-1.383,147.9,40.217,1.14,36361.44,10376.96
107770,-0.288,0.469,0.121,-58.8,-87.8,26,183.5,59.312,-119.625,75.544,30.706,152.549,40.239,1.15,36362,10377.51
107771,-0.783,0.573,-0.099,-51.6,-79.8,32.6,174.875,-204.25,47.938,99.763,53.4,169.292,40.231,1.12,36375.62,10373.07
107772,-1.002,0.904,0.056,-31.4,-71.9,16.7,261.875,-479.75,52.625,86.478,47.907,164.001,40.221,1.09,36225.47,10418.87
107773,-0.867,0.669,0.406,-43.6,-67.7,-14.2,71.75,-627.562,-140.938,58.73,47.934,163.496,40.207,1.14,36346.05,10381.35
107774,0.189,1.017,-0.085,-82.3,-77,3.6,162.25,-378.312,-255.938,94.773,-10.511,182.414,40.18,1.21,36511.79,10329.77
107775,-0.35,2.246,0.559,-55.1,-91,13.2,-86.312,-222.875,-346.25,76.016,8.609,152.63,40.221,1.2,36334.6,10385.34
107776,-0.15,0.303,0.57,-55.9,-88.2,-1.6,0.5,-206.438,247.188,27.96,13.111,129.739,40.2,1.2,36495.65,10335.38
107777,-0.017,2.552,0.249,-78.6,-85.9,13.2,370,250.375,394.438,84.43,0.371,164.819,40.221,1.24,36526.13,10326.76
107778,-0.199,1.906,0.347,-74.6,-64.4,-7.2,182.75,647.75,428.5,79.669,5.867,176.837,40.212,1.27,36515.82,10329.6
107779,-0.714,2.008,0.597,-39.8,-76.5,-9.5,-39.375,247.312,553.188,73.431,18.834,168.454,40.198,1.33,36589.82,10306.6
107780,-0.168,3.106,0.626,-78.8,-83.1,4.1,211.062,-57.562,669.812,78.61,3.033,166.165,40.196,1.32,36547.79,10319.34
107781,0.172,2.341,0.333,-80.6,-51,-0.2,256.375,84.562,574.812,81.91,-4.154,174.803,40.177,1.3,36633.06,10292.78
107782,-0.517,2.176,0.468,-42.5,-57,-13.9,92.125,175.375,573.812,77.872,13.087,181.691,40.17,1.25,36617.84,10297.18
107783,-0.421,1.793,0.206,-46,-85.2,-4.8,-79.5,254.812,470.188,83.448,13.121,175.584,40.162,1.25,36668.68,10281.47
107784,-0.489,0.338,0.301,-57.1,-85.4,-3.6,-90.438,293.5,170.75,48.325,47.243,148.234,40.15,1.29,36634.7,10291.38
107785,-0.354,0.232,0.351,-54.8,-86.7,-1.6,26.938,164.688,112.688,33.469,40.068,135.843,40.146,1.24,36803.62,10240.11
107786,-0.073,0.198,-0.017,-58.1,-90.2,2.7,59.062,139,121.875,94.787,20.212,183.232,40.131,1.2,36897.75,10211.21
107787,0.07,0.138,-0.096,-66.2,-89.7,7.1,9.75,168.625,123.125,124.801,-22.749,235.652,40.118,1.18,36875.65,10217.44
107788,0.365,0.109,0.132,-70.3,-85.8,1.4,-57.25,190.25,114,39.68,-64.873,74.332,40.093,1.2,36807.31,10237.23
107789,0.557,1.417,0.503,-62.7,-81.1,-6.5,-10.688,324.625,-109.938,70.471,-20.336,146.308,40.081,1.21,36783.16,10244.16
107790,-0.241,1.926,0.184,-43.2,-86.3,5.1,228.375,161,73.062,84.528,7.104,166.016,40.079,1.23,37036.33,10167.88
107791,0.07,1.599,0.002,-57.9,-90.6,19.1,47.75,-32,247,89.93,-2.517,160.372,40.075,1.27,36993.46,10180.62
107792,0.768,0.6,0.042,-70.9,-86.5,23.4,89.312,98.875,19.75,86,-51.926,52.036,40.073,1.28,36965.17,10189.05
107793,0.229,1.587,-0.245,-73.4,-84,24.8,327.562,394.312,-234.125,98.775,-8.129,169.04,40.061,1.32,37101.01,10147.93
107794,-0.138,2.766,-0.864,-88.4,-73.6,14.6,455.562,846.375,148.75,107.343,2.719,184.98,40.041,1.29,36923.89,10200.42
107795,-0.613,1.708,0.59,-50,-75.8,-11.3,55.562,587.312,420.312,70.929,18.735,168.861,40.015,1.29,37091.43,10149.31
107796,-0.692,2.777,0.463,-63.5,-86.4,-3.7,-72,177,596.062,80.541,13.811,172.683,39.992,1.32,37118.23,10140.54
107797,-0.436,2.139,0.302,-67.8,-64.4,-12.3,-142,354.25,477.438,81.976,11.416,182.3,39.975,1.31,37152.68,10129.73
107798,-0.47,0.875,0.448,-34.9,-63.3,-8.9,-89.875,219.5,300.625,62.901,25.564,160.03,39.98,1.26,37164.14,10126.45
107799,-0.135,1.092,0.299,-34.4,-79.7,1.7,54.5,195.625,233.938,74.706,6.784,152.312,39.949,1.17,37273.96,10092.74
107800,0.007,1.051,-0.116,-50.8,-87.7,18.1,67.188,318.875,125.312,96.305,-0.37,170.55,39.861,1.12,37350.72,10067.12
107801,-0.282,1.012,-0.321,-73.1,-87.2,21.1,79.438,602,-80,107.602,14.876,183.824,39.899,1.05,37370.72,10062.43
107802,-0.49,1.258,-0.599,-68.9,-89.3,8.8,224.125,791.188,-20.812,115.47,19.372,198.135,39.885,1.06,37332.28,10073.36
107803,-0.264,1.152,0.001,-69,-89.5,9.5,110.5,716.188,206.312,89.951,12.934,173.739,39.883,1.06,37299.64,10082.99
107804,-0.37,0.704,0.556,-69.7,-81.4,-6.3,-129.312,401.25,263.812,51.671,22.409,153.229,39.884,1.11,37319.56,10077.09
107805,-0.523,0.427,0.224,-49.1,-65.4,-17.4,-304.938,305.125,85.312,62.241,47.345,169.566,39.867,1.1,37320.03,10076.43
107806,-0.489,0.275,-0.195,-33.4,-51.1,1.5,-256.188,263.562,-135.562,125.345,55.392,207.694,39.836,1.03,37427.61,10043.55
107807,-0.172,-0.03,-0.348,-47.6,-48.7,22.6,-170.125,161.5,-160.562,-175.037,26.158,224.818,39.741,1,37329.1,10069.68
107808,-0.48,0.185,-0.309,-53,-61.4,32.3,-286.812,-308.75,-64.125,149.063,53.087,204.474,39.697,1.04,37517.2,10012.65
107809,-0.762,0.426,0.138,-34,-80.7,12.2,-163.062,-405.938,267.312,72.079,59.599,155.563,39.643,1.05,37473.1,10023.91
107810,0.267,0.197,0.303,-59.2,-90.5,2,123.438,-327.375,231.5,33.089,-36.521,103.995,39.622,1.03,37491.36,10017.86
107811,0.911,0.225,0.114,-71.2,-86.3,23.8,237.438,-244.688,72.562,63.138,-74.489,53.367,39.63,1.02,37469.82,10024.47
107812,0.477,0.33,-0.961,-62.3,-73.3,35.7,214.188,-75.938,-54.438,161.06,-25.153,241.061,39.643,1.09,37543.93,10003.05
107813,0.327,0.367,-0.45,-63.1,-67,35,34.5,84.625,-242.812,140.799,-29.385,234.962,39.639,1.13,37609.4,9983.64
107814,0.524,0.255,-0.596,-70.7,-66.6,35.4,96.5,111.625,-231.625,156.869,-38.946,249.1,39.65,1.14,37585.84,9990.91
107815,0.455,1.085,-0.614,-81.1,-70,30.3,107.812,171.312,-258.25,119.495,-20.04,189.156,39.64,1.14,37662.89,9967.96
107816,0.044,1.544,-0.437,-80.5,-81.5,23.1,175.062,236.625,-328.188,105.811,-1.568,179.986,39.649,1.13,37690.55,9960.15
107817,0.319,1.228,-0.687,-70.9,-87.6,22.4,191.125,326.062,-218.062,119.232,-12.78,205.004,39.621,1.13,37629.65,9977.14
107818,0.379,1.401,-0.675,-66.4,-87.9,23.3,196.688,375.25,-276.5,115.745,-13.688,201.618,39.635,1.13,37785.8,9931.83
107819,0.376,1.709,-0.431,-72.5,-80,30.5,306.188,400.062,-92.375,104.167,-12.035,169.358,39.614,1.16,37812,9923.52
107820,0.297,1.489,0.128,-88.5,-72.8,13.9,204.688,395.875,-2.562,85.093,-11.226,164.607,39.589,1.15,37819.14,9920.64
107821,0.194,1.889,-0.008,-79.2,-75.9,-1.6,236.188,305.562,166.25,90.237,-5.872,181.544,39.571,1.16,37901.47,9896.06
107822,0.371,1.504,-0.174,-66.9,-80.9,-6.9,185.438,245.188,134.688,96.589,-13.764,199.314,39.559,1.17,37857.41,9908.52
107823,0.518,1.308,0.016,-64.5,-87,-1.6,190.938,133.375,148.125,89.316,-21.615,181.152,39.517,1.2,37867.83,9904.13
107824,0.617,1.119,-0.012,-70.8,-89.9,11.1,267.875,163.375,75.5,90.599,-28.854,151.323,39.572,1.28,37939.47,9885.04
107825,0.365,1.117,0.055,-78.2,-82.5,24.3,296.438,214.812,68.562,87.198,-18.084,150.052,39.563,1.41,37961.29,9878.4
107826,0.421,1.919,-0.114,-89.3,-69.3,12.4,321.625,460.938,221.812,93.406,-12.344,173.481,39.575,1.45,37952.26,9881.4
107827,-0.361,1.612,0.485,-59.9,-64,-17.8,90.312,412.875,297.625,73.256,12.105,178.9,39.54,1.49,38061.42,9848.64
107828,-0.305,0.873,0.514,-40.4,-75.5,-8.9,-42.125,259.438,288.938,59.481,16.784,152.437,39.539,1.51,38082.61,9842.45
107829,-0.444,0.32,0.327,-40.9,-84.3,-1.6,-203.875,283.875,150.062,44.395,44.142,140.306,39.535,1.54,38055.29,9850.24
107830,-0.57,0.196,-0.051,-35.3,-80.5,-1.9,-245.062,252.188,-34.562,104.505,70.429,194.543,39.515,1.45,38120.52,9830.73
107831,-0.321,-0.613,-0.358,-29,-72.4,6,-154.625,212.875,-115.875,-120.302,24.338,267.379,39.436,1.34,38224.75,9798.17
107832,-0.452,-0.316,-0.108,-28.5,-68.3,8.1,-113.688,-215.5,14.188,-108.911,53.509,317.82,39.331,1.3,38206.79,9800.06
107833,-0.593,-0.039,0.198,-47.8,-73.3,-14.9,99.812,-444.688,116.812,-11.147,71.206,101.945,39.274,1.25,38213.09,9796.48
107834,0.01,0.091,0.539,-76.2,-82.4,2.3,104.75,-378.5,-71.562,9.563,-1.023,132.946,39.263,1.28,38186.36,9803.8
107835,0.109,0.115,0.139,-73.1,-86.9,19.8,-11.625,-349.312,-99.312,39.726,-31.242,117.62,39.244,1.28,38359.99,9753.32
107836,0.108,0.21,-0.095,-57.9,-90.3,20,-94.062,-259.25,-67.375,114.283,-25.202,233.797,39.236,1.31,38417.25,9736.66
107837,0.109,1.568,0.086,-53.7,-89.2,0.4,-324.812,-183.438,78.438,86.866,-3.981,173.646,39.225,1.37,38303.56,9768.91
107838,0.72,0.281,0.278,-74.8,-79.7,-2.7,124.125,-211.5,62.25,45.3,-61.232,74.195,39.231,1.36,38286.61,9773.97
107839,0.504,0.786,-0.134,-68.3,-89.7,11,336.5,128.812,-143.188,99.658,-32.289,203.844,39.248,1.37,38410.77,9738.89
107840,0.729,1.361,-0.142,-67.5,-84.3,29.2,327.125,410.125,-173.562,95.979,-28.056,132.714,39.255,1.43,38459.93,9725.04
107841,0.354,2.252,-0.231,-86.4,-72.6,22.5,517.688,451.312,-90.875,95.865,-8.896,168.544,39.273,1.42,38463.54,9724.56
107842,0.827,2.893,-0.106,-84.8,-76.2,2.8,566.875,387.125,129.562,92.106,-15.938,180.002,39.234,1.38,38423.96,9734.67
107843,0.521,2.239,0.53,-81.3,-83,6.5,540.188,116.375,181.75,76.683,-12.763,157.616,39.215,1.38,38472.99,9720.06
107844,0.749,2.966,-0.349,-85.4,-72.9,25.4,583.812,260.5,9.688,96.719,-14.071,165.489,39.189,1.37,38510.72,9708.47
107845,-0.338,1.263,0.386,-74.8,-63.6,-8.2,201.375,641.625,301.875,73.025,14.345,173.061,39.185,1.43,38566.43,9692.47
107846,-0.363,0.503,0.661,-37.4,-67.2,-11.6,-140.375,229.812,252,37.261,23.621,139.432,39.166,1.49,38617.99,9677.22
107847,-0.256,0.45,0.543,-34.2,-74.5,-6.5,-190.938,11.5,217.625,39.663,19.938,133.264,39.156,1.51,38671.88,9661.6
107848,-0.2,0.945,0.326,-49.9,-78.3,-12.7,34.812,-170.375,323.125,70.963,11.321,168.109,39.13,1.46,38728.73,9644.66
107849,0.211,1.223,0.415,-73.7,-84.6,3,270.312,-56.375,190.125,71.264,-9.272,153.417,39.123,1.44,38695.81,9653.78
107850,0.481,0.672,0.304,-83.9,-80.2,18.9,194.25,5.062,150.75,65.707,-33.111,124.559,39.11,1.44,38672.29,9660.06
107851,0.653,0.23,0.469,-88,-66.9,21.4,112.375,15.438,144.188,26.135,-51.31,124.076,39.091,1.53,38663.15,9662.06
107852,0.686,0.155,0.26,-84.5,-56.2,17.7,82.188,1.938,145.875,30.869,-66.211,110.65,39.077,1.55,38762.65,9633.43
107853,0.415,-0.119,0.214,-77.6,-47.9,11.1,83.625,-2.125,84.938,-29.121,-59.465,151.761,39.058,1.53,38782.06,9627.36
107854,0.533,0.356,0.063,-84.7,-54.5,14.9,-59.812,-8.875,-296.188,79.902,-55.823,102.458,39.049,1.49,38883.26,9598.49
107855,0.19,2.075,0.05,-85,-80.5,11.2,-117.125,67.562,-421.875,88.626,-5.239,170.364,39.042,1.45,38950.34,9579.39
107856,-0.297,0.327,0.386,-65.3,-89.4,3.7,-11.125,-39.125,-60.125,40.301,30.411,140.017,39.034,1.43,38968.6,9574
107857,-0.009,0.281,0.424,-66.9,-89.2,7,52.312,-17.062,38.562,33.568,0.99,130.861,39.023,1.43,39023.17,9558.34
107858,0.002,1.508,0.152,-74.4,-87.4,16.2,119.812,-73.5,159.75,84.234,-0.074,161.471,39.045,1.4,39086.63,9541.22
107859,0.254,1.276,0.155,-81.5,-78.6,27,67,-230.938,186.062,83.064,-11.171,150.998,39.047,1.44,39048.49,9551.97
107860,0.407,0.962,-0.718,-68.2,-67.9,35.6,58.875,-160.938,-23.688,126.74,-18.722,196.7,39.04,1.39,38976.57,9571.95
107861,0.077,0.97,-0.578,-62.2,-69.8,36.9,-62.5,26.875,-298.125,120.777,-3.906,184.05,39.039,1.31,39034.26,9555.71
107862,-0.391,1.303,-0.263,-58.6,-77.3,33.7,-149.75,93.125,-255.688,101.392,16.407,167.402,39.02,1.31,39177.84,9514.93
107863,-0.209,1.74,-0.18,-57.3,-89.1,17.2,-423,167.625,-98.938,95.892,6.808,173.283,39.005,1.25,39140.44,9524.93
107864,-0.514,2.004,0.189,-46.2,-79.3,-9.3,-490.438,260.625,-59.812,84.602,14.336,181.597,38.946,1.25,39088.38,9537.7
107865,-0.697,1.963,-0.315,-31,-60.2,-7.1,-459.375,94.312,156.312,99.125,19.318,198.833,38.923,1.25,39203.14,9504.9
107866,-0.61,2.589,-0.088,-30.1,-74,3.2,-343.562,92.375,395.75,91.943,13.249,179.147,38.891,1.23,39237.99,9494.23
107867,-0.264,0.712,0.477,-45.6,-86.1,1.1,-172.25,217,206.25,56.147,17.097,142.814,38.868,1.25,39245.91,9491.32
107868,-0.469,0.128,0.522,-46.2,-85.8,-4.9,-176.25,203.562,53.25,13.759,41.13,122.002,38.847,1.27,39243.89,9491.25
107869,-0.723,0.544,0.337,-46.3,-82.3,-5.9,-53.25,-28.625,164.5,58.226,48.517,155.836,38.824,1.29,39330.13,9466.55
107870,-0.19,0.469,0.314,-68.3,-85.7,-1.3,85.5,-119.062,278.062,56.2,18.618,152.017,38.81,1.29,39410.47,9443.83
107871,0.177,0.427,0.235,-86.1,-78.1,13.1,162.562,-110.438,232,61.124,-19.935,140.552,38.823,1.3,39371.92,9454.9
107872,0.851,0.896,-0.268,-85.7,-63.5,22.5,110.375,-118.938,125.125,106.676,-42.3,169.572,38.827,1.32,39433.2,9438.04
107873,0.641,0.572,-0.464,-85.5,-61.4,24.8,-54.562,-23,-103,129.028,-41.055,220.278,38.839,1.33,39457.77,9431.59
107874,0.352,1.297,-0.151,-81.3,-77.4,28.9,-53.875,-108.5,-317,96.652,-15.099,161.082,38.823,1.37,39518.45,9414.32
107875,-0.396,2.022,-0.231,-50.3,-88.1,22.1,-123.188,-174.688,-354.75,96.525,11.016,169.829,38.811,1.37,39431.08,9438.13
107876,-0.652,1.088,0.088,-34.8,-82.1,2.2,-165.938,-232.875,54.625,85.385,30.844,173.008,38.79,1.32,39519.27,9413.11
107877,-0.224,0.512,0.674,-59.2,-84.9,-6.3,58.812,-230.25,253.625,37.226,14.782,138.311,38.763,1.31,39586.82,9393.63
107878,0.348,0.273,0.357,-80.9,-83.2,11.1,179.062,-186.938,161.312,37.417,-37.765,117.798,38.778,1.3,39528.23,9410.25
107879,0.709,0.214,0.193,-83,-72.5,28.9,199.938,-143.188,65.812,47.883,-67.87,89.512,38.748,1.31,39606.84,9387.68
107880,0.63,-0.202,-0.511,-76,-65.3,32.1,61.562,1.062,-114.875,-158.444,-48.907,237.878,38.75,1.38,39659.64,9373.2
107881,0.362,0.455,-0.3,-79.9,-75.5,29.6,-43.188,187.75,-324.562,123.377,-33.617,216.636,38.732,1.41,39805.73,9332.55
107882,-0.482,2.287,-0.392,-59.2,-91.1,15.1,25.375,338,-509,99.736,11.739,180.39,38.741,1.4,39738.44,9351.26
107883,-0.442,0.675,-0.929,-44.7,-80.1,27.8,67.875,469.312,-402.5,143.987,21.052,215.987,38.698,1.38,39751.61,9346.37
107884,0.172,1.263,-0.487,-72.6,-65,34.4,349.812,383.188,-302.375,111.088,-7.232,172.108,38.703,1.38,39809.68,9330.6
107885,0.422,1.518,-0.008,-88.6,-65.9,11.8,478.062,265.125,-108.312,90.295,-15.526,170.393,38.67,1.4,39811.16,9329.2
107886,0.397,1.875,-0.261,-80.7,-83.7,10.6,508.375,136.938,-207.062,97.913,-11.852,180.951,38.68,1.42,39787.63,9335.95
107887,0.452,1.929,-0.854,-70.8,-82.9,30.4,533.75,357.812,-203.5,113.884,-12.093,186.483,38.655,1.42,39874.43,9311.45
107888,0.476,2.467,-0.283,-84.9,-60.1,24.2,636.438,158.938,-53.688,96.544,-10.856,166.5,38.641,1.38,39911.85,9300.83
107889,0.555,2.294,0.13,-82.8,-61.6,-1.9,586.688,182.375,142.75,86.761,-13.59,178.625,38.617,1.38,39908.85,9300.92
107890,0.52,1.568,0.187,-74.7,-78.8,-3.7,480.438,139.375,173,83.187,-18.228,173.019,38.582,1.36,39909.13,9299.8
107891,0.584,1.2,0.243,-84,-80.5,17.2,423.312,8.188,193,78.556,-25.478,142.868,38.517,1.36,39945.77,9287.88
107892,0.744,1.375,-0.092,-86.1,-66.7,24.9,402.375,74.438,-120.625,93.817,-28.352,154.809,38.485,1.47,40020.89,9266.46
107893,0.244,1.54,-0.076,-88.1,-71.9,9.4,329.188,419.438,-113.375,92.83,-8.992,175.591,38.46,1.54,40096.17,9245.28
107894,-0.189,0.894,-0.062,-63.4,-82.3,-6.3,125.438,520.625,1.125,93.997,11.93,188.662,38.468,1.53,40186.48,9221.04
107895,-0.36,0.704,-0.175,-37,-83.7,6.6,31.188,572.25,-101.938,103.943,26.414,191.125,38.474,1.53,40192.66,9219.55
107896,-0.557,0.425,-0.495,-58.6,-77.6,33.5,115.375,621.25,-150.312,139.371,40.522,201.549,38.478,1.56,40142.43,9233.28
107897,0.332,0.434,-0.133,-89.3,-71.7,11.9,169.875,621.125,81,106.994,-36.155,197.928,38.475,1.56,40048.07,9258.79
107898,0.093,-0.052,0.917,-60.8,-72.6,-13.2,178.688,127.438,-1.75,-3.227,-5.762,129.133,38.461,1.63,40162.99,9227.21
107899,0.271,0.813,0.063,-54.9,-84.7,-6,275.312,-17.938,-182.812,85.538,-18.403,178.624,38.469,1.57,40323.3,9184.13
107900,-0.252,1.867,-0.143,-37.1,-84,9.2,247.812,288.562,-324,94.394,7.659,176.738,38.486,1.56,40287.96,9194.16
107901,-0.478,0.398,-0.708,-45.9,-65.1,31.1,74.062,412.438,-291.875,150.631,30.498,210.828,38.481,1.58,40179.8,9223.25
107902,-0.006,0.935,-0.756,-78.6,-64.2,29.9,196.375,392.438,-414.25,128.972,0.279,192.246,38.461,1.49,40257.52,9201.65
107903,0.504,1.352,-0.588,-88.2,-72.3,12.7,456.062,380.938,-50.75,113.493,-18.864,195.875,38.426,1.68,40313.3,9185.55
107904,0.308,0.599,0.375,-79.1,-76.7,-1.8,247.812,329.688,185.375,57.978,-23.574,139.671,38.404,1.67,40355.17,9173.62
107905,0.149,0.083,0.657,-75.3,-83.6,0.9,293.625,-131.562,-25.312,7.198,-12.71,130.664,38.379,1.67,40387.5,9164.2
107906,0.073,0.712,-0.107,-61.7,-88.9,24,193.75,-280.5,-272.25,98.569,-5.801,168.629,38.347,1.69,40526.85,9125.87
107907,-0.338,0.939,-0.614,-33.4,-75.1,15.4,-129.25,-68.438,-325.812,123.179,16.753,208.236,38.354,1.66,40391.66,9162.35
107908,-0.764,0.608,-0.433,-36.7,-65.7,25.8,-263.688,421.625,-242.75,125.477,45.665,192.921,38.333,1.63,40494.53,9134.11
107909,-0.472,1.728,-0.996,-71.1,-79.5,30,-134.062,588.625,-446.688,119.954,13.329,188.799,38.288,1.58,40515.77,9127.1
107910,-0.09,0.924,-0.107,-62.2,-90.3,15.9,151.25,553.5,-303.438,96.626,5.512,175.653,38.263,1.64,40660.64,9087.67
107911,-0.179,1.459,-0.348,-56.1,-84.6,30.5,299.25,400.625,-287.5,103.43,6.79,171.406,38.247,1.67,40587.12,9106.83
107912,0.293,0.74,-0.978,-83.2,-63.3,24.6,326.625,518.688,-2.438,142.893,-13.429,207.835,38.246,1.7,40604.31,9102.19
107913,0.267,0.182,0.276,-75.6,-60.7,-8,190.75,354.875,84.125,33.315,-38.976,125.948,38.239,1.74,40638.17,9092.96
107914,0.246,1.472,-0.098,-77.7,-79,-0.7,321.062,-451.25,-291.812,93.794,-9.467,185.316,38.216,1.77,40732.24,9067.22
107915,-0.28,1.433,-0.607,-50.7,-89.8,6.3,-173.75,-362.188,-241.5,112.963,10.205,204.221,38.189,1.74,40755.37,9060.29
107916,-0.119,0.215,0.229,-60.4,-84.3,-5.4,22.625,-222.312,98.438,43.112,20.756,143.54,38.173,1.74,40826.49,9040.94
107917,0.088,1.428,-0.183,-74.7,-87.8,9.7,324.688,-0.812,140,97.323,-3.492,181.3,38.177,1.77,40835.39,9038.69
107918,0.283,1.017,-0.588,-80.7,-76.3,28.9,143.75,-141.188,160.438,120.017,-13.549,192.44,38.18,1.74,40686.59,9078.32
107919,-0.11,0.136,-0.598,-70,-67.2,35.2,23.438,-200.125,194.188,167.224,10.192,216.658,38.192,1.77,40787.28,9051.88
107920,-0.458,0.067,-0.459,-50,-59.3,34.2,110.938,-212.312,135.562,171.648,44.634,219.389,38.182,1.8,40888.39,9024.79
107921,-0.493,0.101,-0.379,-33.3,-55.2,17.5,135.25,-157.625,74.938,165.133,51.518,227.325,38.176,1.78,40963.72,9004.69
107922,-0.61,1.163,-0.745,-34,-68.8,21.2,-81.312,225.188,406.688,122.623,23.827,198.021,38.159,1.8,40925.46,9014.31
107923,0.205,1.74,-0.506,-64.4,-88.4,19.4,-443.312,131.688,295.188,106.2,-6.453,186.393,38.13,1.85,40880.61,9025.33
107924,0.6,1.621,0.266,-71.8,-74.7,-9.1,-469.938,-39.75,-114.875,80.666,-20.07,175.693,38.113,1.89,40916.64,9015.3
107925,0.417,1.15,-0.138,-85.2,-58.5,4.7,-366,-354.062,-98.438,96.826,-19.794,182.171,38.095,1.93,41076.71,8972.54
107926,0.29,0.646,-0.587,-80.1,-68.4,32.7,-343.062,-275.125,28.938,132.235,-18.375,202.28,38.07,1.95,41091.66,8967.89
107927,0.072,0.712,-0.247,-70,-81.5,30.4,-270.375,-209.375,222.625,109.139,-5.478,178.135,38.064,1.94,41136.73,8955.87
107928,0.775,0.535,0.102,-74.1,-80.1,30.3,-92.812,-221.625,334.062,79.254,-54.912,68.982,38.057,1.9,41109.58,8962.81
107929,0.234,-0.218,-0.487,-67.7,-70,35.1,117.875,-225.562,153.5,-155.92,-23.707,232.244,38.044,1.91,41125.27,8958.29
107930,0.171,-0.224,-0.337,-55.5,-61.5,32.7,84.375,-60,8.5,-146.425,-22.91,232.209,38.02,1.92,41142.85,8953
107931,-0.025,-1.227,-0.892,-72.5,-58.6,32.3,-27.938,816.25,-138.438,-126.022,0.958,220.074,37.98,1.85,41126.86,8956.05
107932,-0.039,1.872,0.512,-71.3,-79.2,-8.3,519.812,215.438,-125.375,74.692,1.152,169.957,37.845,1.83,41315.53,8902.72
107933,0.035,1.846,-0.206,-70.4,-85.5,28.2,381.188,-21.438,180.062,96.367,-1.084,164.898,37.779,1.87,41381.16,8883.72
107934,0.115,1.362,-0.371,-68.4,-69.1,35.1,24.562,-200.062,267.062,105.238,-4.666,165.786,37.772,1.87,41224.55,8924.43
107935,-0.048,0.477,-0.755,-45.8,-70.1,31.7,-64.438,-288.938,127.5,147.716,3.064,220.727,37.779,1.89,41314.82,8901.03
107936,-0.197,1.394,-0.459,-39.4,-83.9,14.8,-293.625,-128.875,235.75,108.218,7.653,193.609,37.785,1.86,41520.29,8847.66
107937,0.199,1.312,0.074,-63.1,-87.3,-1,-87.875,-172.375,262.375,86.764,-8.617,175.444,37.774,1.94,41448.24,8866.1
107938,0.763,0.391,-0.069,-72.3,-88.8,8.3,182.5,130.5,-159.562,100.041,-62.491,350.863,37.767,2,41510.83,8849.62
107939,0.047,2.135,-0.626,-56.8,-86.4,25.6,452,454.25,-217.25,106.336,-1.207,179.723,37.793,2.01,41507.18,8851.32
107940,0.02,2.159,-0.174,-87.3,-58.6,13.2,363.375,768.438,224.562,94.601,-0.516,174.433,37.79,1.92,41509.85,8850.53
107941,-0.605,1.166,0.298,-41.1,-60.1,-12,-68.125,523.375,369.688,75.682,26.689,177.115,37.746,1.92,41513.78,8848.26
107942,-0.575,1.501,0.139,-31.3,-78.2,9.5,-285.938,271.75,310.688,84.725,20.874,163.63,37.754,1.92,41569.45,8834.03
107943,-0.355,1.653,0.005,-57,-89.8,4.4,-328.312,254.875,262.688,89.831,12.127,176.421,37.717,1.88,41596.18,8826.05
107944,-0.557,0.647,0.325,-49.4,-72.6,-13.9,-350.625,297.688,-16.188,63.331,37.582,166.269,37.692,1.84,41592.03,8826.43
107945,-0.543,0.553,0.116,-31.2,-59.2,-6.3,-152.062,117.25,92.125,78.147,43.822,174.61,37.674,1.84,41712.31,8794.81
107946,-0.587,0.878,0.087,-31.6,-66.3,-7.1,-157.625,-139.938,256.188,84.352,33.605,180.49,37.656,1.81,41708.58,8795.26
107947,-0.47,0.99,0.434,-52.1,-74.7,-13.8,-79.438,-228.312,335.438,66.305,23.522,167.324,37.635,1.83,41653.8,8808.8
107948,0.467,0.512,0.513,-77.8,-69.6,-5.1,108.5,-238.312,294,44.945,-32.749,128.932,37.653,1.86,41766.41,8780.25
107949,0.332,0.174,-0.029,-87.8,-61.7,9.3,217.812,-233.812,116.875,99.567,-62.036,355.553,37.582,1.67,41813.21,8766.19
107950,0.284,0.071,-0.207,-86.3,-59.8,20.6,185.812,-216.562,-60.875,160.999,-52.386,246.353,37.074,1.56,41797.92,8755.79
107951,0.449,-1.024,0.058,-81,-61.9,29.4,37.125,13.062,-171,-86.781,-23.645,194.557,36.332,1.52,41761.9,8744.08
107952,0.597,0.011,-0.251,-79.8,-75.6,30,-65.438,5.812,-312.812,177.549,-67.202,269.761,35.726,1.64,41938.12,8681.94
107953,0.071,1.164,0.016,-59.9,-89.3,21.3,-82.938,156.5,-463.938,89.232,-3.501,157.516,35.559,1.84,42059.09,8646.47
107954,-0.705,1.12,-0.992,-36.5,-73.5,22.9,-16.125,442.75,-381.312,131.509,25.219,206.633,35.637,1.91,41922.43,8683.44
107955,-0.255,0.144,-0.894,-77.7,-75,29.9,-0.438,609.062,-334.75,170.822,15.711,218.841,35.82,1.92,42003.05,8668.05
107956,0.208,1.07,-0.494,-73.2,-87.3,13.9,338.062,487.062,-268.312,114.782,-10.007,202.703,35.973,2,42066.93,8656.09
107957,-0.02,2.304,-0.407,-68.1,-83.5,28.4,496.062,525.875,-147.25,100.016,0.478,168.947,36.125,2.01,42081.86,8656.54
107958,0.621,1.566,0.043,-89.4,-66.5,13,453.562,454.5,68.812,88.43,-21.609,165.848,36.241,2.01,42058.39,8665.76
107959,0.681,1.46,-0.342,-82.9,-76.8,3.2,529.812,-58.625,-41.688,103.168,-24.433,198.005,36.322,1.97,42141.19,8646.98
107960,0.382,2.261,-1.029,-66.9,-80.6,30.1,471.312,-1,-394.625,114.461,-8.733,186.422,36.392,2.03,42157.42,8644.8
107961,0.281,1.874,-0.829,-68.3,-58.6,32.1,380.938,148.625,-350.312,113.854,-7.811,174.485,36.461,1.98,42220.74,8630.66
107962,0.214,2.543,-0.744,-88.9,-66.1,14.9,359.625,241.688,-421.5,106.299,-4.611,182.925,36.505,1.9,42257.9,8622.47
107963,0.368,1.023,-0.207,-76.4,-86.4,9.4,295.625,418.188,-101.062,101.436,-19.422,190.369,36.544,1.87,42289.01,8615.7
107964,0.242,0.324,0.337,-72.2,-87.1,7.6,119.438,435.688,116.625,43.9,-27.382,119.731,36.555,1.79,42209.11,8636.24
107965,-0.388,0.203,0.65,-67.9,-83.2,-2.8,-69.188,384.688,137.188,17.344,29.702,132.731,36.582,1.79,42316.4,8609.81
107966,-0.665,0.074,0.566,-46.4,-75.1,-12.8,-139.125,322.875,-8.5,7.465,49.338,122.992,36.609,1.77,42312.47,8611.56
107967,-0.547,0.308,-0.04,-30,-70.4,-3,-157.75,213.5,16.562,97.393,60.359,189.094,36.6,1.74,42421.67,8583.73
107968,-0.531,0.61,-0.274,-27.8,-70.8,4.1,-302.5,58.438,57.125,114.209,38.444,201.884,36.527,1.75,42469.63,8569.63
107969,-0.599,1.624,-0.021,-30.6,-72.2,-2.6,-387.688,-21.875,117.188,90.757,20.252,183.788,36.492,1.72,42442.41,8575.52
107970,-0.301,2.663,0.52,-38.8,-75.9,-8,-273.812,46.438,452.625,78.945,6.323,171.873,36.499,1.71,42464.83,8570.06
107971,-0.05,1.686,0.66,-58.5,-82.2,-8.5,65.5,59.375,420.938,68.623,1.575,160.029,36.51,1.73,42562.75,8545.73
107972,0.09,1.92,0.534,-74.4,-83.8,0.8,207.188,218.812,320.562,74.459,-2.58,161.816,36.516,1.77,42582.97,8540.83
107973,-0.409,0.992,0.188,-73.8,-75.1,-5.7,-1,396.438,234.062,79.244,22.056,175.016,36.535,1.72,42593.61,8538.68
107974,-0.349,0.516,0.545,-43.9,-70.2,-14.1,-74.812,364.375,44.438,43.472,24.967,147.404,36.539,1.77,42536.99,8553
107975,-0.493,0.807,0.179,-30.2,-71.5,-2.2,-90.062,199.125,119.75,77.523,30.804,167.88,36.548,1.73,42648.14,8525.37
107976,-0.2,0.19,0.103,-33,-79,6.1,-151.188,166.312,66.812,61.472,42.727,148.149,36.546,1.78,42734.78,8503.64
107977,-0.248,1.387,0.167,-39.5,-85.3,7.7,-169.25,-6.812,233,83.138,10.063,161.572,36.552,1.78,42766.52,8495.88
107978,0.152,1.514,0.259,-64.3,-89.2,6.9,20.125,79.375,326.75,80.304,-5.662,158.508,36.561,1.79,42645.41,8526.4
107979,0.107,1.222,0.596,-83.2,-80.6,8.1,187.188,243.125,265.875,63.987,-4.515,151.193,36.561,1.79,42740.13,8502.72
107980,-0.092,1.982,0.701,-79.9,-68.5,-3.5,211,301.5,337.375,70.53,2.499,166.71,36.565,1.8,42799.78,8487.92
107981,-0.299,1.738,0.3,-58,-67.8,-16.6,47.438,409.312,348.938,80.22,9.61,184.025,36.574,1.83,42869.54,8470.79
107982,-0.427,1.2,0.697,-34.5,-77.3,-3.7,-89.625,337.312,238.438,59.845,17.09,146.17,36.598,1.92,42875.1,8470.04
107983,-0.216,1.278,0.464,-47.2,-88.4,7.8,-66.5,162.875,299.375,70.056,9.018,147.668,36.568,1.91,42967.04,8446.37
107984,-0.444,1.331,0.124,-71.1,-87.4,5.4,-72.625,209.562,277.062,84.681,18.373,171.903,36.533,1.88,42946.26,8450.58
107985,-0.237,1.074,0.552,-75.2,-78.9,-4.2,-24.5,186.188,217.188,62.772,11.113,159.74,36.502,1.87,42988.39,8439.26
107986,0.171,1.139,0.569,-72.7,-69.7,-12,39.375,65.125,282.875,63.455,-7.641,162.059,36.505,1.89,42984.68,8440.28
107987,0.068,1.077,0.548,-67.1,-64.5,-13.2,66.062,97.938,279.625,63.042,-3.238,164.592,36.503,1.95,43006.83,8434.72
107988,0.099,0.713,0.551,-54.9,-67.9,-15.4,72.875,203.625,241.562,52.299,-6.239,148.413,36.511,1.94,43070.75,8419.1
107989,-0.167,0.353,0.513,-42.6,-75.9,-11.2,-52.938,239.062,215.438,34.536,14.992,134.221,36.508,1.97,43091.42,8413.9
107990,-0.405,0.224,0.3,-36.9,-78.1,-4.7,-170.75,242.062,119.5,36.84,47.252,136.18,36.514,1.9,43116.65,8407.82
107991,-0.589,0.16,0.393,-39.6,-81.8,-4,-139.25,-77.188,255.062,22.144,54.188,124.575,36.494,1.82,43128.98,8404.24
107992,-0.291,1.185,0.466,-72.4,-84.3,0,154.5,-86.625,437.438,68.549,12.869,160.705,36.465,1.73,43162.22,8395.23
107993,0.731,2.543,-0.191,-88.2,-65.2,4.7,391,202.75,445.625,94.301,-15.993,180.174,36.413,1.67,43069.72,8416.68
107994,-0.198,2.438,0.53,-53.8,-65.5,-16.2,217.375,435.188,519.125,77.736,4.54,181.862,36.412,1.68,43253.6,8371.27
107995,-0.472,2.762,0.305,-56,-85.6,-6.2,21.25,256.75,584.062,83.709,9.648,177.352,36.415,1.73,43293.07,8361.64
107996,-0.467,1.013,0.305,-63.1,-76,-12.9,-187.75,418,293.75,73.27,23.798,173.865,36.411,1.75,43265.8,8368.25
107997,-0.445,0.543,0.604,-38.8,-67.9,-11.7,-84.812,157,129.562,41.931,28.725,144.571,36.399,1.7,43290.17,8361.93
107998,-0.155,0.211,0.398,-39.5,-73.5,-9,17.312,-11.875,153.688,27.897,19.005,130.09,36.374,1.65,43392.78,8336.03
107999,0.003,1.281,0.213,-47.2,-79.7,-7.8,-11,2.312,118.25,80.566,-0.129,173.486,36.352,1.64,43458.2,8319.4
108000,0.049,1.448,0.274,-55.3,-82.5,-7.2,58.5,-12.688,205.75,79.278,-1.896,171.051,36.318,1.62,43427.41,8326.03
108001,0.632,1.29,0.073,-70.3,-88.1,7.8,267.312,23.438,79.062,86.753,-26.076,152.623,36.301,1.65,43439.94,8322.52
108002,0.629,1.515,-0.122,-73.1,-87.1,21.8,374.625,293.625,-54.25,94.605,-22.47,156.379,36.323,1.67,43443.23,8322.29
108003,0.332,2.1,-0.053,-87.5,-71.6,19.8,408.25,479.125,154.938,91.437,-8.975,166.538,36.258,1.69,43435.81,8322.36
108004,-0.233,1.647,0.43,-70.7,-61.9,-13.2,165.562,465.875,393.062,75.358,7.8,177.906,36.33,1.75,43530.82,8301.05
108005,-0.417,0.882,0.319,-34.8,-69.6,-11.3,-108.938,354.125,291.938,70.114,23.95,167.717,36.34,1.79,43566.43,8292.62
108006,-0.438,0.554,0.306,-37.9,-83.9,2.9,-91.312,151,278.438,61.065,34.676,149.128,36.327,1.84,43600.79,8283.89
108007,-0.227,0.467,0.255,-54.7,-89.3,0.6,-187.062,148.688,204.375,61.364,23.162,151.862,36.312,1.8,43590.79,8285.94
108008,-0.341,1.151,0.67,-61.2,-82.7,-8.1,-80.562,16.688,181.188,59.807,14.352,156.09,36.274,1.78,43658.66,8268.38
108009,-0.236,1.2,0.57,-76.7,-78.4,-3.1,92.438,-117.75,259.062,64.602,10.078,160.724,36.239,1.73,43679.27,8262.44
108010,0.587,1.17,0.224,-88.1,-66.7,8.8,197.938,-116.375,217.875,79.187,-26.213,157.401,36.228,1.72,43649.33,8269.43
108011,0.705,0.821,0.117,-87.8,-60.6,10,199.125,25.375,-4.562,81.879,-40.361,147.49,36.221,1.75,43739.86,8247.21
108012,0.53,0.544,-0.061,-87.2,-66.6,3.2,232.688,102.125,-81.812,96.351,-44.095,194.39,36.219,1.83,43757.04,8243.01
108013,0.6,0.595,0.164,-81.8,-77.4,1.4,242.375,112.938,-2.875,74.602,-44.187,107.497,36.219,1.83,43812.83,8229.48
108014,0.236,1.176,-0.215,-76.1,-86.8,10.1,381.5,205.062,-69.062,100.347,-11.176,185.591,36.205,1.86,43874.81,8214.08
108015,0.332,1.895,-0.16,-78.8,-81.7,23.6,432.188,327.188,78.188,94.827,-9.896,165.269,36.183,1.81,43778.61,8236.8
108016,0.224,2.192,0.326,-87.3,-64.7,6.2,388.312,404.375,258.5,81.542,-5.784,168.999,36.163,1.85,43884.5,8210.64
108017,-0.092,2.012,0.481,-62.6,-66.3,-15.3,166.562,340.688,346.938,76.547,2.54,179.525,36.145,1.8,43941.87,8196.29
108018,-0.254,1.153,0.42,-43.7,-78.6,-10.6,14.312,305.812,235.188,69.994,11.688,163.856,36.13,1.88,43971.76,8188.68
108019,-0.227,0.714,0.538,-40.6,-84.9,1.1,-29.125,230.438,101.625,53.03,14.268,137.106,36.138,1.87,43954.66,8193
108020,-0.259,0.263,0.475,-43.5,-88.1,8.2,-33.75,154.625,39.938,28.915,25.469,123.909,36.121,1.9,43936.91,8196.84
108021,-0.365,0.072,0.415,-47.5,-89,11.1,-77.812,116.938,13.75,9.877,40.924,113.379,36.125,1.85,43969.62,8189.06
108022,-0.594,0.072,0.419,-47,-88,7.3,-98.75,91.875,-36,9.787,54.441,110.934,36.067,1.76,43983.85,8184.09
108023,-0.644,0.322,0.633,-46.6,-86.7,6.5,124,-214.812,59.812,26.952,42.192,125.405,36.046,1.75,44044.29,8168.98
108024,-0.269,1.533,0.109,-48,-87.2,18.3,303.812,-191,-33.5,85.922,9.94,158.496,36.031,1.69,44112.31,8152.22
108025,-0.548,0.621,0.388,-35,-79.4,13.1,-17.812,-332.25,-22.562,57.962,36.787,140.329,36.029,1.69,44061.4,8164.4
108026,-0.287,0.345,0.364,-48.4,-85,-4.4,69.188,-388.875,224,43.422,29.79,141.045,36.06,1.75,44170.86,8138.92
108027,0.59,0.945,-0.311,-69.5,-88.8,13.2,195.125,-269.688,-64.125,108.239,-30.652,226.091,36.044,1.78,44220.07,8126.7
108028,0.143,0.86,-0.392,-53.7,-90.1,14.7,-188.688,-132.75,-75.375,114.527,-8.632,211.074,36.054,1.87,44362.57,8092.88
108029,0.09,1.534,-0.237,-60.4,-86.2,-3.6,-209.812,-61.75,215.75,98.787,-3.31,196.796,36.046,1.92,44362.72,8092.63
108030,0.536,0.626,0.125,-73.2,-82.5,-1.3,212.312,140.25,28.625,78.707,-40.027,104.53,36.053,1.95,44368.29,8091.5
108031,0.29,1.385,-0.025,-65.5,-90.7,8.5,374,453.125,99,91.05,-11.82,171.455,36.052,2.04,44375.44,8089.78
108032,-0.501,1.26,0.455,-83,-80,8.3,234.562,668.188,261.25,70.152,20.494,161.265,36.032,2.02,44379.73,8088.22
108033,-0.555,1.83,0.55,-68,-74.6,-12.2,135.75,322.562,440.125,73.259,16.204,173.511,36.039,2.05,44427.36,8077.04
108034,0.266,2.096,0.303,-64.4,-78.7,-10,213.312,332.562,469.562,81.788,-7.17,178.574,36.019,2.06,44380.6,8087.66
108035,-0.218,2.169,0.844,-68,-82.6,-4.4,162.25,242.5,530,68.73,5.343,160.978,36.018,2.12,44487.78,8062.12
108036,-0.019,2.559,0.617,-82.8,-68,-2.9,269.688,117.062,563.562,76.448,0.404,171.049,36.028,2.09,44515.5,8055.79
108037,-0.294,1.546,0.568,-56.4,-55.9,-15.7,38.75,237.812,516.938,69.825,10.113,176.044,36.041,2.09,44593.77,8037.53
108038,-0.369,1.867,0.722,-40,-73.7,-13.1,63.562,51.938,547.125,68.852,10.442,164.733,36.022,2.08,44621.26,8030.54
108039,0.119,2.631,0.521,-76.1,-84.2,5.1,315.5,34.188,546.562,78.796,-2.542,163.562,36.026,2.04,44573.3,8042.01
108040,0.163,1.927,0.476,-83.5,-55.2,3.7,202.062,187.062,503.75,76.114,-4.695,167.953,36.015,2.03,44652.44,8022.97
108041,-0.293,1.126,0.472,-44,-52.4,-10.3,11.062,237.688,419.188,67.246,13.481,168.919,36.015,1.99,44639.43,8026.04
108042,-0.51,0.923,0.302,-29.4,-73.4,-0.9,-107.125,190.938,371.812,71.911,27.723,159.483,36.005,2.02,44695.22,8012.57
108043,-0.371,0.753,0.509,-47.1,-87.9,2.4,-265.688,176.5,252.5,55.935,22.184,144.037,35.995,1.96,44678.31,8016.31
108044,-1.127,0.721,0.221,-56.7,-79.1,-12,-328.188,4.938,235.812,72.995,56.214,173.169,35.966,1.9,44772.33,7993.35
108045,-0.447,1.734,0.33,-58.4,-63.7,-17,-122.312,119.875,441.5,79.231,14.209,183.773,35.924,1.88,44818.61,7981.34
108046,-0.56,1.291,0.317,-38.5,-63.9,-14.2,-209.625,214.438,400.438,76.198,22.847,178.632,35.892,1.82,44783.21,7988.87
108047,-0.65,0.963,0.413,-31.1,-71.4,-4.8,-232.5,203.438,236.25,66.801,31.808,159.074,35.872,1.76,44824.26,7978.68
108048,-0.63,0.8,0.288,-40.6,-85.6,2.6,-127.562,102.562,303.75,70.213,36.507,158.562,35.845,1.72,44878.78,7965.14
108049,-0.215,0.958,0.453,-62.5,-87.8,-0.2,-103.062,115.375,325.562,64.709,11.451,154.146,35.827,1.76,44955.55,7946.63
108050,-0.407,1.754,0.409,-74.5,-75.4,-7,16.625,205.812,338.812,76.875,12.734,173.411,35.82,1.82,44988.15,7938.8
108051,-0.072,1.907,0.477,-58.8,-68.2,-16.2,-3.625,338.125,351.5,75.95,2.104,179.214,35.807,1.87,45019.94,7931.01
108052,-0.43,1.355,0.493,-35.1,-72.9,-6.7,-94,417.75,218.25,70.007,16.624,160.93,35.818,1.93,44991.62,7937.94
108053,-0.474,1.354,0.309,-38.4,-84.7,10.9,-152.812,339.938,190.688,77.126,18.86,154.644,35.83,1.97,45027.02,7929.95
108054,-0.227,1.154,0.099,-55.6,-90.1,7.8,-243.938,287,96.75,85.116,11.112,167.851,35.826,1.99,45054.82,7923.34
108055,-0.396,0.956,0.164,-49,-85.8,-3.3,-154,253.375,-11.375,80.272,22.212,171.749,35.826,1.97,45099.44,7912.9
108056,-0.373,0.075,0.079,-40,-81.3,-4.8,-118.75,169.375,0.5,43.55,73.693,140.857,35.8,1.9,45168.78,7896.02
108057,-0.44,0.846,0.165,-39.2,-76.8,-8.6,-237.938,-75,126.312,78.97,27.048,174.891,35.805,1.94,45131.76,7904.81
108058,-0.435,1.634,0.26,-54.1,-70.6,-16.1,-133.875,-109.812,417.875,80.971,14.742,183.901,35.797,1.93,45178.67,7893.65
108059,0.434,1.341,0.308,-65.6,-69.8,-13.5,204.5,-23.562,418.312,77.048,-17.517,176.542,35.801,1.9,45188.65,7891.42
108060,0.261,1.16,0.313,-73,-75.1,-9,249.875,87,359.375,74.892,-12.232,168.9,35.798,1.96,45254.63,7875.96
108061,0.017,1.085,0.501,-77,-70.4,-7.2,159.375,130.5,383.375,65.235,-0.795,163.208,35.806,1.97,45314.6,7862.21
108062,-0.212,0.976,0.485,-67.5,-61.2,-13.4,31.062,152.188,394.875,63.573,10.997,168.925,35.804,2.02,45357.28,7852.24
108063,-0.344,0.84,0.403,-47.4,-59.8,-15.3,-143,173.125,349.188,64.374,20.235,169.547,35.8,2.07,45358.05,7851.95
108064,-0.773,0.689,-0.01,-32.4,-61.4,-8.9,-240.125,97.312,221.375,90.812,48.283,188.26,35.8,2.01,45309.87,7863.16
108065,-0.421,0.917,0.38,-28.9,-67.8,-5,-252.438,-58.188,273.5,67.519,22.961,157.641,35.769,1.92,45302.19,7864.15
108066,-0.491,1.379,0.165,-46,-81.6,-8.1,40.625,-74,456.062,83.18,19.467,178.665,35.725,1.89,45499.41,7817.29
108067,0.153,2.421,0.375,-80.7,-79.8,6.5,227.875,-16.438,458.812,81.202,-3.578,166.172,35.702,1.83,45428.69,7833.09
108068,0.483,0.97,0.328,-85,-61.2,-0.3,127.5,246.688,163.125,71.323,-25.256,159.659,35.699,1.8,45431.7,7832.32
108069,-0.099,0.442,0.531,-62.6,-64.9,-15.5,128.875,275.875,-12.75,39.785,8.12,150.114,35.702,1.84,45563.94,7801.79
108070,0.011,0.664,0.356,-46.2,-77.4,-12.5,215.375,130.688,46.5,61.775,-0.817,150.449,35.709,1.88,45703.01,7769.92
108071,0.07,1.778,-0.134,-50.4,-88.6,2.3,266.5,12.562,165.562,94.3,-2.257,185.302,35.717,1.91,45674.06,7776.77
108072,0.457,0.736,-0.42,-61.2,-89,21.8,128.062,98.938,-27.5,119.696,-28.332,244.398,35.715,1.96,45558.41,7803.4
108073,0.318,0.764,-0.577,-58.5,-85,25.1,71.938,258.812,-283.312,127.045,-18.382,226.725,35.704,1.98,45689.28,7772.93
108074,-0.135,1.796,-0.751,-63.3,-73.9,34.6,315.188,456,-350.5,112.682,3.959,177.147,35.693,1.94,45697.86,7770.69
108075,0.232,1.242,-0.239,-88.3,-70.2,14.3,379,607.625,-161.062,100.894,-10.403,179.399,35.685,1.92,45772.83,7753.25
108076,0.492,2.007,-0.102,-71.8,-87.2,4,517.938,240.25,51.938,92.924,-13.756,180.53,35.669,1.98,45796.09,7747.5
108077,0.775,2.495,-0.371,-74,-78.5,31.3,616.625,259.812,-60.438,98.456,-17.08,157.371,35.666,2.02,45819.29,7742.12
108078,0.58,3.172,-0.345,-85.7,-56.5,12.2,673.5,249.75,76,96.199,-10.298,175.346,35.643,1.94,45812.92,7742.99
108079,0.183,2.341,0.456,-68.6,-72.6,-12,450,346.75,351.438,78.984,-4.375,178.09,35.628,1.97,45857.15,7732.48
108080,-0.093,1.525,0.638,-67.6,-80.5,-8,79.688,211,484.812,67.294,3.209,161.744,35.613,2.04,45930.87,7715.23
108081,-0.288,1.251,0.386,-69.1,-62.8,-13.1,-99.562,102.312,452.938,72.834,12.4,175.762,35.608,1.95,45950.34,7710.66
108082,-0.383,1.693,0.492,-52.2,-53.6,-15,-57.75,-38.625,440.562,73.802,12.242,179.501,35.618,2.02,45973.02,7705.73
108083,-0.071,1.115,0.509,-47.9,-62.6,-17,98.75,-41.562,340.875,65.435,3.327,168.417,35.614,2.01,46036.75,7691.08
108084,0.053,0.58,0.545,-45.8,-72.5,-15.3,62.25,135.75,135.375,46.79,-3.791,137.166,35.613,1.82,46032.39,7692.06
108085,-0.122,0.468,0.669,-35.2,-75.9,-8.2,-20.688,244.25,20.062,34.964,8.505,126.3,35.605,1.96,45975.25,7704.88
108086,-0.602,0.505,0.344,-29.5,-75.2,3.5,-63.25,247.062,-16.875,55.751,44.61,144.45,35.614,2.04,45957.95,7709.06
108087,-0.783,0.489,-0.035,-33.7,-76,17.3,-186,219.812,-4.438,94.11,57.941,171.92,35.585,1.91,46052.61,7686.74
108088,-0.672,0.537,-0.092,-40.5,-83.6,18.8,-264.812,169.312,-51.125,99.699,50.998,177.232,35.542,1.91,46128.93,7668.29
108089,-0.587,1.367,-0.344,-45.5,-88.6,4.4,-428.312,162.375,111.875,104.104,22.59,192.934,35.528,1.88,46177.56,7656.89
108090,-0.286,2.609,0.09,-50,-73.6,-14.6,-514.938,131.688,290.562,88.029,6.252,191.792,35.481,1.9,46185.58,7653.9
108091,-0.648,1.57,-0.053,-30.9,-61.8,-5,-319.125,380.188,266.125,91.922,22.414,187.735,35.45,1.88,46214.61,7646.55
108092,-0.661,2.142,-0.211,-37.7,-81.3,15.1,-340.875,298.75,275.312,95.62,17.064,173.308,35.431,1.85,46323.6,7621.38
108093,-0.498,0.917,0.029,-56.3,-91.3,7.8,-156,558.25,0.188,88.172,28.47,173.423,35.429,1.9,46390.73,7606.16
108094,-0.278,1.091,-0.123,-55.8,-90.6,11,-27.125,508.062,99.25,96.43,14.215,179.413,35.426,1.93,46402.43,7603.45
108095,-0.075,0.637,0.11,-60.3,-87.9,5.5,-56.125,499.875,22.25,80.182,6.628,163.699,35.431,1.93,46402.43,7603.57
108096,-0.541,0.555,0.157,-53.7,-89.3,4.5,39.438,455.25,48.25,74.201,43.133,163.564,35.445,1.9,46418.93,7600.19
108097,-0.469,0.878,-0.137,-59.5,-91.1,16.8,64.688,471.312,44.938,98.842,27.838,178.448,35.444,1.91,46485.03,7585.25
108098,-0.135,1.023,-0.547,-73,-88.3,13.7,70.625,510.062,71.312,118.118,6.625,199.752,35.451,1.98,46486.67,7585.07
108099,0.038,1.049,0.171,-66.7,-88.2,6,236.312,512.562,75.812,80.754,-2.051,162.461,35.464,1.98,46438.67,7596.2
108100,0.073,1.257,0.464,-78.5,-82.4,8.4,95.375,380.875,332.5,69.757,-3.127,153.912,35.476,2.03,46481.3,7586.88
108101,-0.231,0.108,0.527,-67.7,-69.5,-12.9,34.5,301.75,154.688,11.616,23.263,137.997,35.459,2.13,46555.96,7569.66
108102,-0.206,1.283,0.315,-57.5,-80.9,-9.5,337.312,139.188,199.125,76.2,8.857,171.726,35.472,2.21,46698.29,7538.01
108103,0.082,1.794,-0.6,-69.5,-88.3,15.7,344.625,377.562,204.25,108.5,-2.482,191.319,35.472,2.26,46570.56,7566.68
108104,0.345,0.488,0.28,-81,-78.9,9.9,261.312,389.562,117.688,60.144,-31.479,126.887,35.47,2.25,46622.27,7555.03
108105,0.475,1.217,0.11,-84.7,-78.8,18.2,488.312,-174.438,-22.5,84.822,-21.253,153.71,35.458,2.24,46699.09,7537.5
108106,0.494,1.531,-0.642,-71,-63.7,32.4,439.25,-129.688,-271.875,112.752,-16.563,173.732,35.446,2.24,46639.2,7550.65
108107,0.01,0.418,-0.634,-72.4,-55.2,28.6,108.75,-2.688,-361.75,146.637,-0.736,202.96,35.441,2.21,46701.02,7536.65
108108,-0.015,1.619,-0.661,-71.2,-77.7,31.4,-205.125,-99.75,-484.625,112.199,0.48,180.227,35.419,2.18,46777.49,7519.01
108109,-0.494,2.787,-0.455,-37.7,-83.5,9,-429.562,109,-498.25,99.267,9.918,185.056,35.389,2.13,46847.87,7502.53
108110,-0.422,1.749,-0.417,-34.1,-53.9,18,-236.562,339.562,-554.938,103.403,13.198,173.793,35.354,2.09,46802.46,7511.83
108111,-0.104,1.62,-0.695,-82,-58.4,21.5,277.625,370.625,-477.438,113.215,3.39,182.184,35.35,2.14,46910.06,7487.72
108112,0.447,1.223,-0.427,-81.7,-80.2,2.3,457.125,381.625,-12,109.227,-19.041,204.876,35.334,2.13,46874.34,7495.3
108113,0.463,0.759,0.492,-81.7,-80.7,10.1,327.125,57.562,248.438,57.064,-27.082,130.305,35.308,2.18,46884.6,7492.37
108114,0.367,0.708,-0.16,-83.2,-63.8,28.1,409.25,-388.688,41.25,102.746,-26.832,162.908,35.294,2.19,47011.98,7463.69
108115,-0.013,2.462,-0.766,-63.2,-54.3,30,21.375,-351.688,-508.875,107.283,0.282,168.852,35.243,2.22,46992.27,7466.82
108116,-0.367,1.527,-0.721,-45.7,-71.5,28.5,-335.688,-326.875,-149.062,115.277,12.257,184.463,35.216,2.21,47015.12,7461.11
108117,-0.485,0.453,0.506,-34.1,-81,8.7,-164.5,-175.312,71.5,41.852,35.552,129.95,35.2,2.2,46998.06,7464.51
108118,-0.196,0.216,0.645,-39.9,-83.5,2.6,26.438,23,90.312,18.487,16.087,119.348,35.216,2.25,47051.03,7453.12
108119,-0.131,0.609,0.188,-46.9,-89.9,11.8,204,74.375,120.188,72.813,11.594,148.811,35.204,2.25,47251.56,7408.44
108120,0.15,2.178,-0.277,-62.1,-77.9,31.9,299.188,97.062,171.375,97.251,-3.915,158.858,35.207,2.24,47128.06,7435.83
108121,0.364,0.314,-0.704,-78.1,-70.4,28.6,82.062,330.375,-204.875,155.934,-25.285,228.105,35.201,2.3,47211.44,7417.24
108122,-0.059,2.151,-0.521,-77,-84.3,15.8,326.062,377.812,-403.75,103.62,1.516,183.247,35.201,2.28,47255.68,7407.47
108123,0.095,1.113,-1.02,-70.6,-84.6,25.5,363.812,582.5,-127.625,132.51,-3.589,210.369,35.192,2.32,47230.87,7412.72
108124,0.32,1.377,0.586,-83.7,-78.9,18.9,484.312,199.625,-44.312,66.963,-12.075,144.714,35.181,2.32,47317.12,7393.44
108125,0.568,2.765,-0.818,-81.4,-70.4,27.7,558.375,190.812,-309.5,106.478,-11.144,174.234,35.172,2.29,47262.5,7405.27
108126,0.334,2.51,-0.419,-85.8,-71.6,6.1,572.812,559.125,55.375,99.47,-7.472,184.35,35.172,2.32,47329.41,7390.52
108127,0.428,2.897,0.203,-79.3,-80.8,4.3,574.25,154.438,216.125,85.991,-8.393,171.529,35.144,2.32,47364.3,7382.16
108128,0.345,1.632,0.189,-86.3,-72.1,8.3,411.312,283.062,302.812,83.382,-11.844,166.687,35.145,2.3,47391.74,7376.15
108129,0.373,1.022,0.461,-81,-60.3,-3.8,348.375,-75.688,325.125,65.734,-18.398,160.139,35.141,2.27,47466.94,7359.52
108130,0.532,1.433,-0.471,-87.2,-70.8,7,410.25,-65.812,-242.312,108.212,-19.425,194.666,35.121,2.33,47500.3,7351.72
108131,0.296,1.765,-0.221,-70.3,-88.9,14.8,307.5,332.125,-267.438,97.125,-9.442,176.164,35.132,2.43,47595.76,7331.07
108132,-0.19,0.506,-0.099,-66.6,-88.6,21,96.812,499.875,-95.438,101.033,20.279,177.773,35.12,2.42,47668.59,7314.86
108133,-0.412,0.301,-0.177,-64.6,-88.4,12.5,107.625,489.375,-150.625,120.441,49.75,197.989,35.13,2.44,47631.54,7323.18
108134,-0.202,0.351,-0.594,-66.4,-88.3,20.1,183.375,484.562,15.938,149.411,16.31,219.011,35.116,2.39,47547.04,7341.35
108135,0.564,0.506,-0.098,-80.7,-79.9,11.3,70.875,434.625,126.438,100.927,-47.612,321.669,35.124,2.43,47555.93,7339.6
108136,0.186,0.46,0.612,-71.3,-79,-3.9,113.25,266.938,13,36.914,-13.688,133.297,35.091,2.4,47694.03,7308.61
108137,0,1.292,0.687,-67.2,-87,3.3,271,-1.062,86.875,61.999,0,146.929,35.069,2.44,47734.8,7299.19
108138,0.178,0.996,0.232,-75.1,-84.2,23.2,206.625,-97.875,140,76.878,-9.849,145.58,35.031,2.38,47784.43,7287.49
108139,0.55,0.378,-0.149,-71.8,-72.4,33.6,122.188,-204,133.25,111.571,-53.578,12.155,35.057,2.4,47705.12,7305.38
108140,0.397,0.278,-0.652,-54,-63.9,33.2,40.188,-202.5,54.938,156.895,-29.267,246.47,35.046,2.4,47649.22,7317.32
108141,0.036,0.424,-0.648,-42.3,-67.6,29.8,-137.625,-52.062,139.25,146.831,-2.671,225.656,35.059,2.32,47793.37,7286.19
108142,0.223,1.057,-0.54,-50.1,-83.7,26.4,-227.188,29.5,199.438,117.05,-10.62,203.61,35.048,2.43,47874.21,7268.36
108143,0.537,0.931,0.064,-64.6,-90.5,15.2,-134.875,-75.062,93.062,86.042,-29.905,118.261,35.038,2.45,47945.73,7252.6
108144,0.464,0.458,-0.231,-61,-90.3,13.3,53.875,-41.188,-197.812,116.809,-42.112,293.945,35.049,2.4,47973.53,7246.82
108145,-0.34,1.618,-0.49,-40,-80.8,19.7,192.562,176.5,-385.688,106.845,11.359,184.691,35.039,2.42,47846.88,7274.08
108146,-0.081,0.701,-0.753,-46.7,-56.4,27.4,164.375,187.75,-244.25,137.076,4.501,203.876,35.036,2.39,47982.28,7244.63
108147,0.208,0.109,-0.468,-75.9,-53.9,26.2,-38.375,342,-315.25,166.84,-23.412,220.411,35.03,2.42,48093.67,7220.38
108148,-0.124,1.817,-0.138,-81.2,-80.1,9.5,83.5,260.438,-500.75,94.33,3.891,177.732,35.023,2.59,48180.17,7201.55
108149,-0.863,1.668,-0.803,-41.5,-86.3,13.2,182.625,508.25,-406.625,115.714,24.987,199.32,35.009,2.59,48034.82,7232.6
108150,-0.045,0.791,-0.568,-67.7,-65.4,34.6,317.75,547.688,-297.562,125.698,2.641,188.066,34.995,2.61,48129.08,7211.91
108151,0.391,1.733,0.053,-84.6,-61.3,2.2,453.5,358.625,160.25,88.258,-12.718,176.633,34.978,2.61,48079.62,7222.21
108152,0.229,0.573,0.78,-68.4,-73.6,-10,369.125,84.938,129.625,36.304,-13.335,135.665,34.96,2.6,48202.62,7195.23
108153,0.495,0.6,-0.196,-68.1,-88.4,12.6,384.75,64.125,-95,108.099,-38.082,272.358,34.952,2.65,48236.2,7187.82
108154,0.436,0.725,-0.678,-61.2,-82.2,31.7,379.562,147.562,-124.5,133.088,-23.719,234.925,34.943,2.68,48164.62,7203.02
108155,0.531,0.866,-0.411,-73.4,-58.1,29.8,390.562,181.125,-16,115.391,-28.989,176.471,34.928,2.65,48288.26,7176.05
108156,0.496,0.783,0.183,-74.5,-45.7,5.9,335.938,183.438,132.375,76.807,-31.662,158.357,34.828,2.6,48202.86,7192.1
108157,0.211,0.325,0.717,-60.1,-55.2,-15.7,311.25,20.188,71.875,24.373,-14.986,137.895,34.771,2.53,48366.38,7155.63
108158,0.465,0.665,0.08,-62.9,-78.4,-9.4,299.812,-24,-103.562,83.134,-34.759,179.656,34.758,2.58,48447.7,7137.9
108159,0.043,0.558,-0.178,-50.7,-87.3,1,115,229.75,-127.5,107.65,-4.192,209.852,34.763,2.47,48583.35,7109.05
108160,-0.255,0.505,-0.367,-38,-83.8,13.9,-74.75,496.75,-168.25,126.027,22.209,210.775,34.763,2.48,48559.62,7114.11
108161,-0.83,0.506,-0.687,-56.5,-77.4,29.7,111.75,594.375,-303.938,143.655,44.201,206.647,34.76,2.42,48346.44,7159.64
108162,0.298,0.751,-1.019,-86.4,-71.3,19,301.375,583.5,22.25,143.625,-13.237,213.047,34.759,2.49,48483.39,7130.29
108163,0.077,0.386,0.797,-65.6,-79.3,-10.2,333.438,280.562,-118.688,25.859,-4.973,132.615,34.764,2.5,48614.68,7102.38
108164,0.004,2.382,-0.448,-47,-89,15.3,434.812,214.625,-235.875,100.649,-0.092,181.724,34.743,2.52,48687.51,7086.4
108165,-0.508,0.478,-0.555,-54.7,-68.8,34.9,148.5,330.688,-198.062,139.266,34.702,198.934,34.761,2.56,48526.74,7121.09
108166,0.094,0.812,-0.892,-80.5,-71.5,28,174.688,326.438,-360.312,137.689,-4.441,204.424,34.764,2.58,48540.96,7118.11
108167,0.535,1.031,-0.752,-82.6,-78.6,18.7,329.875,366.625,-144.062,126.134,-22.739,213.404,34.765,2.53,48737.36,7076.29
108168,0.425,0.179,0.327,-76.4,-85.5,6.8,181.625,391.938,-148.312,28.646,-48.732,107.088,34.749,2.62,48748.77,7073.52
108169,-0.093,1.647,-0.117,-53,-89.7,15.7,331.375,254.688,-248.688,94.069,3.215,170.894,34.753,2.64,48874.57,7046.92
108170,-0.773,1.064,-0.751,-60.4,-72.1,34.6,234,415.562,-180.5,125.203,30.698,188.204,34.741,2.64,48722.55,7078.89
108171,0.267,0.679,-0.607,-87.1,-71.5,20.6,252.438,405.625,-265.438,131.786,-16.359,206.522,34.746,2.65,48882.62,7045.04
108172,0.619,0.853,-0.38,-77.6,-83.5,8.6,325.125,392.625,-103.625,113.993,-33.533,231.698,34.718,2.69,48857.02,7049.82
108173,0.134,1.391,-0.061,-64.9,-90.4,15.9,351.562,314,-183.812,92.531,-5.486,167.991,34.701,2.71,49085.9,7001.09
108174,-0.337,1.578,-0.8,-71.1,-78.2,31.1,375.562,582.375,-101.312,116.89,10.774,185.099,34.696,2.75,48886.95,7042.97
108175,0.424,0.7,-0.198,-82.5,-70.9,-1.6,283.5,552.125,97.125,105.808,-30.217,209.289,34.7,2.72,48935.47,7032.81
108176,0.338,0.247,0.709,-68.2,-80.2,-8.3,271.812,-11.312,69.25,19.213,-24.23,123.405,34.679,2.76,48999.61,7018.77
108177,0.423,0.86,-0.232,-62.7,-89.6,8.4,240.812,72.312,-228.062,105.117,-25.383,219.321,34.664,2.69,49204.84,6975.22
108178,-0.136,0.851,-0.23,-48.1,-84.7,23.6,136.188,341,-243.562,105.144,8.747,179.386,34.657,2.64,49198.59,6976.39
108179,-0.658,0.435,-0.516,-69,-79.5,31,60.812,530.812,-292.75,139.866,44.248,201.855,34.652,2.68,49098.54,6997.3
108180,0.151,0.996,-0.858,-75.2,-84.8,21.1,358.875,515.938,-209.938,130.754,-6.567,210.902,34.64,2.68,49117.78,6992.99
108181,0.405,0.276,0.288,-85.1,-75.9,9.5,301.938,441.312,132.125,43.811,-45.432,113.888,34.615,2.76,49205.29,6974.01
108182,0.153,0.106,0.812,-83.1,-77.6,6.1,330.688,-10,29.5,7.464,-10.598,136.158,34.602,2.8,49256.08,6963.07
108183,0.153,1.037,-0.199,-76.3,-83.2,24.3,282.312,-50.125,-314.5,100.874,-8.26,172.625,34.589,2.85,49405.71,6931.45
108184,-0.578,0.878,-0.564,-62.9,-80.4,31.7,159.375,329.5,-370.438,122.709,28.963,189.902,34.569,2.83,49214.31,6971.09
108185,0.075,0.663,-0.673,-74.3,-81.7,28,267.875,406.438,-306.188,135.46,-4.548,209.599,34.567,2.85,49324.86,6947.86
108186,0.508,0.904,-0.163,-81.1,-74.7,26.5,352.375,179,-42.188,100.223,-28.973,158.803,34.565,2.93,49371.82,6937.99
108187,0.334,-0.095,0.395,-86.9,-68.1,10,72.75,347.875,-33.938,-13.469,-39.393,142.541,34.537,2.91,49382.93,6935.05
108188,0.352,0.661,0.708,-83.2,-76.7,3.3,-13.188,-93.062,-215.25,43.039,-19.998,136.341,34.515,2.91,49428.97,6924.92
108189,0.36,0.727,0.45,-73.1,-88.3,12.8,101.438,-316.125,-231.875,58.251,-22.84,125.454,34.508,2.89,49543.83,6900.81
108190,-0.175,1.01,-0.08,-41.3,-84.1,15.2,47.75,-254.625,-360.75,94.53,9.782,171.227,34.5,2.87,49605.08,6887.9
108191,-0.936,2.004,0.309,-29.8,-63.2,-4.6,-206.812,-383.125,-200.812,81.222,24.78,174.56,34.52,2.81,49469.99,6916.47
108192,0.087,0.316,0.643,-50.4,-58.9,-18.4,110.438,-239.812,240,26.181,-6.91,135.116,34.507,2.87,49557.76,6897.89
108193,0.511,2.106,0.15,-55.7,-81.7,-10.5,474.062,188,265.125,85.918,-13.615,187.629,34.512,2.85,49689.05,6870.71
108194,0.189,2.921,0.292,-79.1,-83.9,17.8,360.062,626.438,445.125,84.295,-3.69,160.526,34.502,2.89,49575.33,6894.12
108195,-0.709,1.892,0.386,-61.9,-54.5,-12.7,-149.188,427.625,490.188,78.457,20.145,181.139,34.488,2.88,49666.65,6874.83
108196,-0.763,1.056,-0.246,-29.5,-55.7,8.6,-476,392.062,112.375,103.111,35.142,184.313,34.478,2.89,49794.26,6848.17
108197,-0.637,0.874,-0.468,-41.7,-77,25,-472.062,-20.562,-17,118.129,32.73,190.335,34.457,2.9,49789.27,6848.71
108198,-1.078,2.165,0.306,-62.5,-85.6,-4.9,-230.5,-504.688,592.438,81.942,26.236,175.644,34.431,2.89,49758.81,6854.45
108199,0.825,1.611,-0.154,-84.8,-57.7,17.9,522.562,-230,93.562,95.467,-26.998,165.804,34.402,2.84,49872.29,6830.34
108200,0.596,1.14,-0.275,-86.9,-63.2,4.3,367.125,268,-173.438,103.574,-26.954,192.228,34.4,2.86,49867.82,6831.22
108201,-0.038,0.496,0.158,-60.6,-80.3,-7.8,237.562,450.188,73.375,72.313,4.183,165.624,34.388,2.9,49993.78,6804.98
108202,0.068,0.162,0.238,-51,-90.3,2.1,211,132.812,55.875,34.229,-13.344,116.795,34.377,2.94,50087.07,6785.54
108203,0.131,0.51,-0.213,-49.9,-86.2,20.7,273.625,-59.188,-102.062,112.628,-13.306,206.322,34.388,2.91,49963.94,6811.12
108204,0.27,0.258,-0.733,-43.6,-70.4,28.9,81.812,158.125,-168.375,160.632,-19.186,246.641,34.373,2.96,49835.46,6837.3
108205,0.136,0.557,-0.438,-63,-75.8,32.3,-153,283.875,-301.812,128.179,-10.833,204.579,34.381,2.95,50193.86,6763.72
108206,-0.514,3.068,-0.34,-58.5,-84.4,26.3,28.688,271.562,-428.562,96.318,9.462,166.821,34.37,3.02,50128.23,6776.93
108207,-0.729,0.461,-0.548,-60.1,-83.4,27.8,-42.562,103.688,56.938,139.924,45.536,205.656,34.378,3.04,50088.98,6785.17
108208,-0.254,1.494,-0.399,-75.3,-82.4,23.8,-115.625,-41.5,306.25,104.957,9.318,178.878,34.344,3.06,50223.9,6756.74
108209,0.61,0.725,-0.436,-84.5,-69.2,25.6,-2.812,73.938,142.375,121.032,-35.784,207.705,34.319,3.13,50192.09,6762.72
108210,0.703,0.759,0.035,-86.6,-72,11.6,214.25,334.938,-211.812,87.351,-42.752,135.41,34.325,3.11,50300.77,6740.6
108211,0.39,2.272,-0.522,-70.5,-89.3,8.5,472.625,517.125,-36.938,102.942,-9.506,192.059,34.317,3.11,50283.21,6744.01
108212,-0.106,1.472,0.794,-76.8,-84.2,12.9,364.875,480.625,190.062,61.64,3.639,147.616,34.293,3.14,50293.92,6741.31
108213,0.644,2.162,0.041,-87.3,-70.8,16.1,548.812,148.875,147.875,88.914,-16.59,164.653,34.277,3.1,50354.02,6728.67
108214,0.63,2.124,0.347,-82,-62,-0.3,407,310.062,346.25,80.709,-16.306,171.025,34.26,3.09,50392.2,6720.51
108215,-0.01,0.371,0.894,-64.6,-70.7,-14.1,355,-175.75,298,22.531,0.578,137.338,34.25,3.07,50337.16,6731.53
108216,0.271,1.595,-0.426,-73.6,-86.4,22.8,421.25,-304.562,-395.688,104.94,-9.335,180.242,34.249,3.13,50509.62,6696.37
108217,-0.399,2.386,-1.002,-36.7,-64.2,24.9,67.312,-164.75,-637.188,112.784,8.767,182.333,34.25,3.19,50556.77,6686.8
108218,-0.326,1.592,-0.505,-64.6,-53.4,29.5,-169.75,276.688,-521.812,107.588,11.046,170.904,34.246,3.17,50413.79,6715.82
108219,0.124,1.183,-0.534,-81.9,-81.8,16.7,90.062,452.938,-437.75,114.291,-5.456,194.023,34.234,3.21,50634.95,6670.6
